"Time (s)";"Linear Acceleration x (m/s^2)";"Linear Acceleration y (m/s^2)";"Linear Acceleration z (m/s^2)"
2.671269400E-2;-5.139212608E-1;1.717586517E-1;-5.760593414E-1
4.502299700E-2;-6.861974001E-1;2.001991272E-1;-8.384265900E-1
6.333568000E-2;-8.747531176E-1;1.228561401E-1;-6.144437790E-1
8.164677600E-2;-6.504945755E-1;4.459095001E-2;-4.050712585E-1
9.995750600E-2;-2.379726768E-1;-7.008814812E-2;7.902050018E-2
1.182800160E-1;-5.321991444E-2;3.032255173E-2;4.038286209E-1
1.365916610E-1;-1.519120634E-1;6.606817245E-3;1.319494247E-1
1.549006820E-1;-3.762820363E-1;-1.225552559E-1;-4.338979721E-1
1.732139760E-1;-5.575248003E-1;-6.155657768E-2;-5.316734314E-1
1.915240950E-1;-6.365804076E-1;1.131055355E-1;-2.951593399E-1
2.098364730E-1;-6.435897350E-1;1.399161816E-1;-9.250450134E-2
2.281496450E-1;-6.330882907E-1;1.756289005E-1;8.575630188E-2
2.464590930E-1;-6.753339767E-1;1.369290352E-1;1.430187225E-1
2.647701890E-1;-7.754949927E-1;1.982841492E-1;8.286666870E-2
2.830813460E-1;-7.280848026E-1;3.620388508E-1;-2.120933533E-1
3.013913450E-1;-6.187357306E-1;1.756482124E-1;-4.916095734E-1
3.197037220E-1;-8.258308172E-1;2.851400375E-1;-6.850719452E-2
3.380150010E-1;-1.162925839E0;4.253821373E-1;-1.842288971E-1
3.563262190E-1;-1.066340566E0;3.915598392E-1;-2.149744034E-1
3.746373160E-1;-6.125533581E-1;1.991105080E-1;-1.972055435E-1
3.929497550E-1;-5.749248862E-1;1.111059189E-1;-3.887948990E-1
4.112589590E-1;-5.870834589E-1;1.091707945E-1;-5.616416931E-1
4.295712150E-1;-7.311221361E-1;1.071588993E-1;-6.639575958E-1
4.478824940E-1;-8.562898040E-1;2.542418242E-1;-5.403127670E-1
4.661934070E-1;-1.115185261E0;4.706670046E-1;-2.637033463E-1
4.844933950E-1;-1.044282675E0;1.271246672E-1;-2.527160645E-1
5.028157820E-1;-4.319120646E-1;-4.929424524E-1;3.690605164E-1
5.211284660E-1;1.518826485E-1;-2.162566185E-1;-3.765850067E-1
5.394411490E-1;4.838085175E-2;-9.736305475E-2;-2.551107407E-1
5.577491320E-1;-3.979688883E-1;-1.276421547E-2;-8.019952774E-1
5.760560780E-1;-1.714322090E0;-5.621349812E-2;9.724998474E-2
5.943718740E-1;-1.748951674E0;1.668116450E-1;3.349914551E-1
6.126832140E-1;-1.132844210E0;-1.120732427E-1;-5.782461166E-1
6.309941880E-1;-1.071250916E0;-2.848532200E-1;-1.576354504E0
6.493057120E-1;-1.446356416E0;-6.167095900E-1;-1.869774818E0
6.676171130E-1;-1.125445127E0;-6.151133180E-1;-1.782005310E0
6.859281480E-1;-6.444814205E-1;1.163332760E-1;-1.486658096E0
7.042333250E-1;-3.697001934E-1;7.199119925E-1;-1.742519379E0
7.225504020E-1;-5.750551224E-1;8.147062659E-1;-1.501127243E0
7.408617420E-1;-9.710497856E-1;5.030305386E-1;-1.668097019E0
7.591727160E-1;-1.575580716E0;2.905943096E-1;-1.710777760E0
7.774843000E-1;-1.372278690E0;-4.333252311E-1;-5.196065903E-1
7.957954580E-1;-9.814336300E-1;-4.306308627E-1;-9.085836411E-1
8.141067980E-1;-5.242798328E-1;7.912154794E-1;-1.062028408E0
8.324166120E-1;-1.066311121E0;-3.347357512E-1;-1.045304775E0
8.507290520E-1;-1.312657833E0;-4.649782181E-2;-1.420296669E0
8.690405140E-1;-8.360328674E-1;-1.480224133E-1;-3.788204193E-1
8.873514270E-1;-7.260470390E-1;-2.432194948E-1;6.884393692E-1
9.056626450E-1;-3.425846100E-1;-4.501318932E-2;6.336221695E-1
9.239748410E-1;3.917407990E-2;6.029272079E-1;-1.490278244E-1
9.422850820E-1;7.627239227E-1;1.272235036E0;-3.330168724E-1
9.605963000E-1;6.605396271E-1;1.248606801E0;-2.387471199E-1
9.789069690E-1;1.981639862E-2;9.896748066E-1;3.741040230E-1
9.972068960E-1;-4.300508499E-1;5.300536156E-1;8.731794357E-1
1.015530138E0;-4.515786171E-1;6.098401546E-1;1.130866051E0
1.033842577E0;-2.776479721E-2;9.550213814E-1;1.160104752E0
1.052152391E0;-4.445953369E-1;1.641161680E0;9.032382965E-1
1.070464648E0;-1.753497124E0;1.946353674E0;4.864974022E-1
1.088775011E0;-2.167722702E0;1.227652073E0;1.035622597E0
1.107073046E0;-6.947331429E-1;6.903114319E-1;1.884352207E0
1.125385546E0;1.555989265E0;4.535167217E-1;2.599389553E0
1.143698046E0;2.521026611E0;6.660571098E-1;2.503093243E0
1.162008776E0;2.479756355E0;5.717282295E-1;2.049591303E0
1.180320299E0;2.793090820E0;-1.937103271E-1;1.798441648E0
1.198631334E0;3.788120270E0;-6.518940926E-1;1.513692141E0
1.216942797E0;3.602950096E0;-1.923060417E-1;8.534479141E-2
1.235253099E0;2.177132607E0;9.837403297E-1;-1.507877588E0
1.253574938E0;9.770288467E-1;7.705459595E-1;-1.647515059E0
1.271890062E0;1.150046349E0;-1.730380058E-1;-4.087100029E-1
1.290198290E0;1.428045273E0;-2.094011307E-1;5.221347809E-1
1.308512316E0;1.782375336E0;3.086338043E-1;6.787250042E-1
1.326820726E0;1.210252762E0;1.983947754E-1;7.247791290E-1
1.345125842E0;-2.674503326E-1;-3.720474243E-1;5.204117298E-1
1.363442980E0;-1.027332306E0;-1.204289436E0;-6.193530560E-2
1.381754015E0;-2.067165375E-1;-2.020220757E0;2.048288584E-1
1.400065355E0;1.275601387E0;-2.130018234E0;1.704612255E0
1.418376818E0;1.501332283E0;-2.119240284E0;2.347746849E0
1.436687548E0;6.545457840E-1;-2.871402740E0;-1.453792453E-1
1.454998888E0;-4.578781128E-1;-3.703900814E0;-4.052628517E0
1.473309008E0;8.899984360E-1;-1.963955402E0;-1.095564365E0
1.491621385E0;1.549696922E0;-7.301082611E-1;1.047190428E0
1.509932787E0;2.289600372E-1;-3.081130981E-2;2.155483365E-1
1.528241136E0;-1.358304024E0;2.798166275E-1;-4.629058242E-1
1.546555101E0;-1.045317650E0;3.569612503E-1;-3.011219501E-1
1.564866442E0;3.017864227E-1;6.068916321E-1;-4.336361885E-1
1.583177538E0;2.110038757E0;8.644189835E-1;-1.540726423E-1
1.601487657E0;2.953994751E0;7.384986877E-1;3.703678250E-1
1.619799913E0;1.453744888E0;6.635417938E-1;2.729380131E-2
1.638110704E0;-1.422717094E0;2.950158119E-1;-8.294944763E-1
1.656422228E0;-2.871243000E0;3.987660408E-1;-6.736395359E-1
1.674733507E0;-3.103110313E0;6.062927246E-1;-2.185893357E-1
1.693044786E0;-1.311362743E0;1.630282402E0;-9.594703913E-1
1.711355151E0;-4.115400314E-1;1.660694122E0;4.986920953E-1
1.729667101E0;2.040064812E0;3.110905647E0;1.567057133E0
1.747978319E0;1.488599777E-1;2.046081066E0;-1.192663312E0
1.766289965E0;-1.197484970E0;2.065530777E0;-3.610850573E0
1.784600695E0;-6.824746132E-1;2.134883642E0;-2.422063947E-1
1.802913134E0;-1.675436497E0;4.558982849E-1;1.021630526E0
1.821218798E0;-1.617369652E0;-1.189136982E0;-5.064823627E-1
1.839534288E0;-3.323249817E-1;-6.260037422E-1;-1.880896091E-2
1.857845568E0;-1.007342339E-1;-9.035029411E-1;2.654362917E-1
1.876156603E0;-5.022473335E-1;1.721301079E-1;-5.159724951E-1
1.894467882E0;5.453915596E-1;8.859777451E-2;1.092839241E0
1.912779466E0;3.607330322E-1;-4.599847794E-1;7.257043719E-1
1.931091662E0;2.636561394E-1;-9.482040405E-1;8.307694793E-1
1.949401720E0;-5.523867607E-1;-1.393643379E0;8.576845527E-1
1.967712511E0;-3.710279465E-1;-2.199946404E0;1.331448674E0
1.986019213E0;1.369552612E-1;-2.877203465E0;2.027539253E0
2.004335192E0;6.305360794E-1;-2.672783375E0;6.498293281E-1
2.022648547E0;-5.551376343E-1;-1.788298130E0;-1.182894945E0
2.040957689E0;-8.672566414E-1;-6.452045441E-1;-8.691339493E-1
2.059254199E0;-1.223945618E-2;-4.200038910E-1;7.991933823E-2
2.077579698E0;1.432909012E0;-8.543109894E-1;-4.925599098E-1
2.095891222E0;6.995811462E-1;-8.727855682E-1;2.811578512E-1
2.114196397E0;-9.460072517E-1;-2.790031433E-1;4.131450653E-1
2.132513536E0;-9.365367889E-1;7.894039154E-2;-2.214497328E-1
2.150824816E0;-3.928995132E-2;5.186805725E-1;2.681117058E-1
2.169135851E0;1.450142860E-1;4.477405548E-1;4.138537645E-1
2.187447130E0;6.639475822E-1;7.540645599E-1;1.208531857E-1
2.205758470E0;9.394602776E-1;6.779756546E-1;1.760550737E-1
2.224069445E0;1.142673492E-1;8.848085403E-1;6.481224298E-1
2.242379564E0;2.133479118E-1;1.038713932E0;4.454634190E-1
2.260691942E0;6.056871414E-1;1.392948151E0;3.219847679E-1
2.279003038E0;7.018594742E-1;1.773547173E0;3.146764040E-1
2.297314562E0;7.421565056E-1;1.754194260E0;-1.540228128E-1
2.315625780E0;9.087173939E-1;9.672441483E-1;-2.278450727E-1
2.333926134E0;6.240131855E-1;2.715564251E0;-5.287727118E-1
2.352237474E0;-1.029309034E0;1.250912666E0;-3.125275373E-1
2.370548754E0;-2.059434175E0;-9.587039948E-1;1.328360915E0
2.388859911E0;-6.084921360E-1;1.046269417E0;9.136955142E-1
2.407171129E0;-6.259367466E-1;1.593234062E0;7.248473167E-1
2.425480822E0;-5.312751532E-1;3.325234890E0;6.110959053E-1
2.443806628E0;-8.333728313E-1;3.133950233E0;2.877725363E-1
2.462114794E0;-2.611318827E-1;2.340002060E0;-2.255070210E-2
2.480415759E0;2.464129686E0;1.155443192E-1;-2.472697496E-1
2.498733812E0;3.456928253E0;-3.516767502E0;8.765534759E-1
2.517054552E0;5.354435444E-1;-8.363620758E0;2.294054508E0
2.535362841E0;-1.815092206E0;-1.055027771E1;5.192955732E-1
2.553667040E0;-2.216014862E-1;-1.435783386E0;-5.816760063E-1
2.571983690E0;5.280625820E-1;1.704155922E0;4.641785622E-1
2.590293505E0;6.913357973E-1;1.678771973E-1;2.715817690E-1
2.608604845E0;2.215397358E-1;-4.354085922E-1;-1.360411644E-1
2.626911241E0;2.400724888E-1;9.643554688E-2;-2.936685085E-2
2.645227281E0;1.452255249E-1;-2.330369949E-1;5.136519670E-1
2.663534532E0;-2.666450739E-1;-3.480281830E-1;5.125321150E-1
2.681848253E0;-6.185430288E-1;7.916736603E-2;-6.487488747E-3
2.700160692E0;-8.350360394E-2;4.541616440E-1;1.350196600E-1
2.718471605E0;2.795757055E-1;-2.207756042E-2;1.350396872E-1
2.736783068E0;2.477511168E-1;-1.592035294E-1;1.703789234E-1
2.755088182E0;4.502729177E-1;-9.629058838E-2;2.533718348E-1
2.773405382E0;5.055416822E-1;9.041118622E-2;2.384368181E-1
2.791716783E0;6.216174364E-1;2.997350693E-1;1.263630390E-2
2.810027880E0;4.343295097E-1;5.763092041E-1;1.084990501E-1
2.828339220E0;2.367043495E-1;1.010885239E-1;1.823546886E-1
2.846650133E0;-5.189561844E-2;-1.993370056E-1;2.785010338E-1
2.864949816E0;-5.412470102E-1;-4.584436417E-1;-4.255187511E-2
2.883271350E0;-4.678118229E-1;-2.245426178E-2;-1.943740845E-1
2.901583605E0;-2.096199989E-2;1.083850861E-1;-2.603222132E-1
2.919895128E0;7.800924778E-2;-1.939201355E-1;-1.980364323E-1
2.938206224E0;1.584438086E-1;-2.378196716E-1;-2.954152822E-1
2.956517382E0;-1.766622066E-2;-2.321939468E-1;-4.496909380E-1
2.974828417E0;-1.888226271E-1;3.834905624E-1;-4.719429016E-1
2.993139757E0;7.624745369E-2;7.495164871E-1;-4.831521511E-1
3.011452501E0;4.957101345E-1;5.441045761E-1;-4.860161543E-1
3.029762377E0;9.527893066E-1;2.698259354E-1;-4.431949854E-1
3.048073595E0;7.850931883E-1;5.201911926E-2;-8.453011513E-2
3.066384630E0;3.784186840E-1;2.718229294E-1;-8.257746696E-2
3.084695665E0;-3.041255474E-2;-1.620044708E-1;-4.392514229E-1
3.103006700E0;7.545983791E-2;-2.066488266E-1;-7.998059988E-1
3.121317370E0;4.348874092E-2;5.642261505E-1;-6.472929716E-1
3.139627855E0;3.073296547E-1;1.070027351E0;-1.116774082E-1
3.157940233E0;1.037748098E0;1.043970108E0;5.070788860E-1
3.176251818E0;1.468498707E0;9.531736374E-1;1.034720182E0
3.194562792E0;1.593323231E0;5.814666748E-1;1.432903051E0
3.212875475E0;1.493250847E0;4.200630188E-1;1.623209000E0
3.231185106E0;1.075090289E0;6.281671524E-1;1.275771737E0
3.249496385E0;1.243886471E0;-5.344371796E-1;5.461767912E-1
3.267807665E0;1.611600876E0;-7.316875458E-1;6.858545542E-2
3.286118700E0;1.444072485E0;1.150169373E0;-3.518974781E-2
3.304427172E0;5.259723663E-1;-2.284679413E-1;3.322192729E-1
3.322729540E0;4.433244467E-1;-1.010636330E0;-1.090340018E-1
3.341055041E0;1.384602785E-1;-1.105198860E0;-8.529418111E-1
3.359366381E0;1.865466833E-1;4.324817657E-2;-1.097349405E0
3.377674974E0;1.042436004E0;5.273571014E-1;-3.132792711E-1
3.395981310E0;1.333380580E0;6.692762375E-1;3.475655317E-1
3.414297228E0;1.579767466E-1;4.013957977E-1;2.116763592E-2
3.432608446E0;-1.774275303E-2;7.387857437E-1;-7.258794308E-1
3.450919542E0;1.096827507E0;1.242590904E0;-6.233560443E-1
3.469230882E0;2.282357931E0;9.279575348E-1;-5.357447863E-1
3.487542040E0;1.696983695E0;2.139234543E-1;-5.674780607E-1
3.505852831E0;1.033066750E0;3.573331833E-1;-1.018494129E0
3.524156786E0;1.201053858E0;4.718580246E-1;-1.371283412E0
3.542475206E0;1.946288109E0;8.462085724E-1;-1.528070927E0
3.560786547E0;1.724079847E0;3.320436478E-1;-1.571024299E0
3.579095079E0;1.943220019E0;5.128040314E-1;-1.070069432E0
3.597408800E0;2.527818441E0;4.831619263E-1;-8.058438301E-1
3.615709276E0;2.545234203E0;7.347888947E-1;-7.703445554E-1
3.634019762E0;2.060529232E0;6.853904724E-1;-9.033033848E-1
3.652331530E0;1.612037897E0;6.470270157E-1;-1.457186818E0
3.670642198E0;1.008114934E0;7.123184204E-2;-1.887336969E0
3.688953661E0;8.495751023E-1;-1.385195732E0;-2.078092575E0
3.707265733E0;1.935290337E0;-2.737981796E0;-1.491116524E0
3.725576341E0;3.599184513E0;-2.146138191E0;-7.991063595E-1
3.743887560E0;4.206258774E0;1.002054214E-1;-8.617951274E-1
3.762209825E0;4.269712567E-1;-2.389523506E0;-1.816219091E-1
3.780522021E0;1.460173130E0;-3.193037987E0;1.781562567E0
3.798831896E0;5.006288052E0;-3.981291771E0;1.306852341E0
3.817143114E0;6.338315010E0;-2.465945244E0;-4.836244583E-1
3.835454393E0;2.762157440E0;2.528762817E-1;-1.508111835E0
3.853766894E0;3.703065813E-1;1.186286926E0;-7.357859612E-1
3.872076769E0;-1.154210091E0;1.589430809E0;-3.515258431E-2
3.890388842E0;-2.919510365E0;1.356754303E-1;-2.588214636E0
3.908699327E0;-4.182707787E0;-2.014787674E0;-4.059095383E0
3.927010546E0;-3.623281956E0;-1.945979118E0;-1.476962566E0
3.945321337E0;-2.086170435E0;-1.207573891E0;2.879299521E-1
3.963627855E0;-5.323144794E-1;-1.228980064E0;9.805814624E-1
3.981944200E0;5.701549649E-1;-1.880599022E0;9.526522160E-1
4.000254991E0;7.333403826E-1;-3.073241234E0;7.217872143E-1
4.018566210E0;1.075856209E0;-4.143830299E0;5.454572439E-1
4.036872911E0;2.615347385E0;-2.925700188E0;3.517410755E-1
4.055188829E0;3.001353741E0;-2.417182922E-2;2.242895126E0
4.073500109E0;6.066657305E-1;2.347512245E0;4.477788448E0
4.091809252E0;-1.495488167E0;7.152557373E-1;3.009382725E0
4.110122240E0;-8.548885584E-1;3.321707726E0;2.070620298E0
4.128433458E0;-2.111176968E0;3.874537468E0;1.537036180E0
4.146744738E0;-1.878851414E0;3.650541782E0;1.859513998E0
4.165050219E0;-1.204078078E0;3.378129959E0;2.079332352E0
4.183366869E0;-2.470911264E0;4.239166737E0;2.117468596E0
4.201678087E0;-1.290785074E-1;-3.659971237E0;2.064956665E0
4.219989366E0;6.707906723E-4;-1.923102379E0;1.489899158E-1
4.238300157E0;-2.241426706E0;4.791519642E0;-1.599323750E-1
4.256611620E0;3.743631840E-1;7.551274300E0;-6.099207401E-1
4.274919847E0;1.320041418E0;5.550830364E0;-1.049578905E0
4.293235155E0;6.250809431E-1;3.524140358E0;-1.722759247E0
4.311545214E0;1.025061727E0;2.292883396E0;-3.484900713E0
4.329856554E0;2.386630774E0;3.655366898E-1;-6.246944904E0
4.348171923E0;3.249365807E0;-1.944705963E0;-4.897267818E0
4.366475390E0;2.935546637E0;-3.603654861E0;-3.375962257E0
4.384789965E0;2.806052208E0;-3.985059738E0;-2.582978725E0
4.403100939E0;1.838005900E0;-1.107736588E0;-2.180792809E0
4.421399035E0;3.904988766E-1;-3.249368668E-1;-1.228709698E0
4.439723253E0;4.384899139E-1;-3.467084885E0;6.930031776E-1
4.458034777E0;-1.209678411E0;-6.184729576E0;4.732204914E0
4.476334154E0;-9.217399359E-1;-6.198739052E0;6.646532059E0
4.494657091E0;-1.539060831E0;-1.173430443E0;5.368854523E0
4.512968370E0;-2.453342438E0;2.237215042E0;1.103549480E0
4.531281175E0;-5.059957981E0;6.920938492E-1;2.115686178E0
4.549590441E0;-3.792757273E0;7.869434357E-2;2.446809292E0
4.567901720E0;-2.250829458E0;3.009986877E-1;2.281038284E0
4.586212999E0;-1.787822127E0;4.034309387E-1;3.029168129E0
4.604518054E0;-1.104278326E0;3.654537201E-1;2.913592100E0
4.622835131E0;4.736957550E-1;4.492206573E-1;2.270019531E0
4.641146349E0;2.429139614E0;2.218189240E-1;2.053888798E0
4.659457567E0;3.169168234E0;-3.722534180E-1;1.291227818E0
4.677768602E0;2.928575039E0;2.717618942E-1;-6.615996361E-2
4.696080126E0;3.259537458E0;1.633840561E0;-1.446044207E0
4.714391283E0;2.828033447E0;2.135987282E0;-1.642313004E0
4.732701036E0;1.773124933E0;1.520534515E0;-1.349466801E0
4.750999804E0;1.186876655E0;8.777599335E-1;-1.116847038E0
4.769313768E0;1.082470417E0;4.629001617E-1;-6.785328984E-1
4.787624254E0;1.328178883E0;5.249786377E-1;-7.866084576E-3
4.805935838E0;1.535092592E0;9.026222229E-1;2.118935585E-1
4.824248399E0;1.755176544E0;1.484059334E0;7.662671804E-2
4.842558397E0;1.984972239E0;1.989715576E0;-5.669674277E-1
4.860870287E0;1.831628442E0;1.983033180E0;-2.884745359E0
4.879181200E0;1.634732246E0;1.285660744E0;-4.849775791E0
4.897505175E0;2.349013567E0;-2.096681595E-1;-4.541893005E0
4.915813768E0;3.829680920E0;-1.363124847E0;-3.282899857E0
4.934126513E0;5.587961674E0;-1.763739586E0;-2.251554012E0
4.952436388E0;6.640223980E0;-2.048014641E0;-1.623422503E0
4.970747667E0;6.748194218E0;-4.018704414E0;-9.124107957E-1
4.989058702E0;6.309579372E0;-6.440231323E0;-5.605853200E-1
5.007369921E0;4.038684845E0;-6.524202347E0;-1.908746123E0
5.025681261E0;2.282984495E0;-4.480790138E0;-1.518409371E0
5.043992235E0;1.944703817E0;-2.713860512E0;4.589708745E-1
5.062304491E0;6.424438953E-2;-2.966618538E0;1.907013655E0
5.080614550E0;-3.185162067E0;-4.732782364E0;3.031941414E0
5.098924853E0;-4.782308102E0;-6.127540588E0;2.286003113E0
5.117238634E0;-4.724632263E0;-5.637641907E0;1.409940004E0
5.135548204E0;-4.683093548E0;-2.798438072E0;1.962034345E0
5.153859484E0;-4.302203655E0;3.776960373E-1;2.482957125E0
5.172170519E0;-2.360476732E0;2.657628536E0;1.891603470E0
5.190482714E0;-7.899086475E-1;3.072410583E0;1.695637941E0
5.208793077E0;2.120745182E-1;2.994936943E0;2.508985996E0
5.227104357E0;8.881801367E-1;3.561904430E0;4.130694389E0
5.245410509E0;7.567516565E-1;4.792664528E0;5.024313450E0
5.263726427E0;2.837450504E-1;5.241247654E0;5.390202522E0
5.282037462E0;-4.510384798E-1;4.751993179E0;5.232514858E0
5.300348925E0;-1.265771627E0;4.187900066E0;5.000415325E0
5.318659838E0;-1.749945045E0;4.295411110E0;4.436314106E0
5.336971056E0;-1.632823706E0;4.154200077E0;2.753062487E0
5.355282213E0;-1.345031738E0;3.280863762E0;-4.228496552E-2
5.373588732E0;-9.004091024E-1;1.859968185E0;-3.867904663E0
5.391907580E0;-7.254266739E-2;-2.399559021E-1;-7.361824989E0
5.410215929E0;2.197794199E0;-3.310785294E0;-9.094898224E0
5.428527025E0;2.896975517E0;-7.238073349E0;-9.760019302E0
5.446833422E0;2.974259853E-2;-5.741920471E0;-3.151536942E0
5.465149218E0;-4.959640503E-1;-3.216161728E-1;-7.840056419E-1
5.483460436E0;-5.489215851E-1;-9.787187576E-1;-2.951175690E0
5.501770189E0;-1.749768734E0;-7.069751740E0;-1.454880714E0
5.520079943E0;-2.075473070E0;-1.197419071E1;5.126544476E0
5.538394213E0;-1.569275141E0;-7.165041924E0;1.184386158E1
5.556705187E0;-5.486949682E-1;4.149675369E-1;7.818272114E0
5.575016466E0;-7.909890413E-1;3.098485470E0;4.868484020E0
5.593327684E0;-2.866317034E0;1.713102341E0;4.938388824E0
5.611638964E0;-1.439206481E0;6.603717804E-1;4.138395309E0
5.629949877E0;-2.547342777E-1;-4.615592957E-2;3.862055302E0
5.648261095E0;3.018293381E-1;-4.396200180E-1;2.159746885E0
5.666572374E0;1.341467500E0;-6.371860504E-1;1.211346507E0
5.684883470E0;2.212295771E0;-9.807586670E-2;-3.050839901E-1
5.703195666E0;1.875521183E0;-1.721000671E-2;-9.874497652E-1
5.721505724E0;1.570461273E0;7.824611664E-1;-8.343268633E-1
5.739817003E0;1.211264253E0;2.005440712E0;5.120301247E-2
5.758128038E0;6.104810238E-1;2.717539787E0;8.356238604E-1
5.776439257E0;7.022130489E-2;2.857122421E0;1.066521168E0
5.794746935E0;6.250560284E-1;3.040767670E0;4.671711922E-1
5.813061632E0;1.220421433E0;3.047353268E0;-6.927122474E-1
5.831373033E0;1.439389229E0;2.576401234E0;-1.889826179E0
5.849671007E0;1.172330618E0;1.588288307E0;-3.141280651E0
5.867985094E0;1.016232014E0;4.612989426E-1;-4.351247787E0
5.886295397E0;2.497480392E0;-2.744283676E-1;-4.416201591E0
5.904606737E0;4.999711514E0;-6.754732132E-1;-3.519183159E0
5.922916857E0;6.857679367E0;-1.037755013E0;-1.564419508E0
5.941237108E0;6.594251156E0;-1.032454491E0;-6.335675716E-3
5.959541368E0;4.397337437E0;-4.250459671E-1;-7.815235853E-2
5.977862352E0;2.156062603E0;-6.762123108E-1;-2.039879322E0
5.996173326E0;2.236585617E0;-2.025680542E0;-2.362603426E0
6.014478686E0;3.331104994E0;-3.848816872E0;-1.501233816E0
6.032795519E0;2.592928410E0;-5.746386528E0;-2.084425211E0
6.051106798E0;1.071737885E0;-5.679891586E0;-2.139565229E0
6.069418382E0;-1.771578789E-1;-4.855119705E0;8.295352459E-1
6.087729418E0;-9.358849525E-1;-4.273504257E0;4.188997746E0
6.106040331E0;-1.667304039E0;-4.962376595E0;3.589928150E0
6.124351549E0;-2.763822794E0;-6.236094475E0;1.856798768E0
6.142659960E0;-3.962991714E0;-6.943283081E0;7.005760670E-1
6.160973986E0;-1.866576791E0;-4.783161163E0;8.190219402E-1
6.179282397E0;-6.306811571E-1;-1.312994957E0;1.560356140E0
6.197595995E0;-1.730022311E0;1.906640053E0;2.438432693E0
6.215907579E0;-1.984677911E0;4.280577183E0;2.367814302E0
6.234218614E0;-1.162679672E0;4.737522125E0;3.202125549E0
6.252529589E0;4.990518093E-2;4.911028385E0;4.694876194E0
6.270840868E0;4.621859789E-1;5.802467346E0;5.437798023E0
6.289152208E0;6.281015873E-1;6.718348503E0;6.091613770E0
6.307463243E0;1.283160448E-1;6.752362251E0;5.964518547E0
6.325774523E0;-1.078644156E0;6.263794422E0;5.342976570E0
6.344087023E0;-1.432785034E0;5.656923294E0;3.814919949E0
6.362396898E0;-8.861273527E-1;4.834464073E0;1.714879513E0
6.380705004E0;-4.767323732E-1;3.233847618E0;-1.249346733E0
6.399018846E0;1.415723205E0;3.853845596E-1;-4.039373398E0
6.417330187E0;2.623240471E0;-6.011288643E0;-9.071962357E0
6.435641405E0;2.131628513E0;-1.147992706E1;-1.238020706E1
6.453952684E0;-7.629474998E-1;-7.786521912E0;-6.134232521E0
6.472253344E0;5.544590950E-2;-1.461696625E-1;-3.130445480E0
6.490574999E0;5.514332056E-1;3.881438255E0;-3.686716080E0
6.508886156E0;-4.588315487E-1;-2.057221413E0;-2.339894295E0
6.527195421E0;1.902633667E0;-1.075632000E1;1.539817810E0
6.545508348E0;2.156165838E-1;-1.157386971E1;1.471942425E1
6.563808153E0;-8.366099000E-1;-3.496964455E0;1.025608253E1
6.582116075E0;-9.414458275E-1;2.298569202E0;3.406183720E0
6.600433337E0;-4.287188530E0;2.764655590E0;3.468154669E0
6.618750292E0;-4.382270813E0;1.799633026E0;2.801843643E0
6.637054308E0;-1.980136395E0;8.648920059E-1;2.298839092E0
6.655369554E0;-1.124685168E0;-3.188390732E-1;2.669690132E0
6.673682482E0;3.547403812E-1;-1.567852020E0;2.626670361E0
6.691997850E0;3.044888973E0;-1.764212608E0;1.975842476E0
6.710309191E0;3.917727709E0;-8.691291809E-1;5.230047703E-1
6.728620287E0;3.288027287E0;4.027433395E-1;-3.792786598E-1
6.746931505E0;2.705418825E0;2.282210350E0;-1.739256382E-1
6.765242540E0;1.634162903E0;3.665389061E0;7.886985540E-1
6.783548754E0;2.419301867E-1;4.084540367E0;1.429726362E0
6.801864916E0;-1.188092232E-1;3.952910900E0;1.193646312E0
6.820175951E0;-3.107985258E-1;3.197216034E0;1.125577688E-1
6.838487108E0;-4.573556781E-1;2.082361221E0;-1.122505546E0
6.856798143E0;-1.221790075E0;7.892408371E-1;-2.551198959E0
6.875109423E0;-1.765233994E0;6.163692474E-2;-3.540275574E0
6.893420519E0;3.498494625E-2;-5.647373199E-2;-4.147727013E0
6.911730577E0;4.159318924E0;-3.080434799E-1;-3.645459890E0
6.930042833E0;7.973908901E0;-1.285851479E0;-2.117104769E0
6.948354174E0;9.511414528E0;-2.006617546E0;-1.183739662E0
6.966665331E0;8.926945686E0;-1.525600433E0;-6.306381226E-1
6.984964403E0;6.907025337E0;1.265048981E-1;-9.933753014E-1
7.003287645E0;6.159263611E0;3.985290527E-1;-1.248954892E0
7.021594591E0;6.202323914E0;-1.979297638E0;-2.271363735E-1
7.039910021E0;3.550183296E0;-4.187949181E0;-1.127309799E0
7.058221056E0;-3.138956428E-1;-5.561921120E0;-1.610694528E0
7.076532518E0;-1.487702608E0;-6.013927460E0;-6.728532314E-1
7.094843553E0;-2.438245535E0;-6.649157524E0;3.259931803E0
7.113155810E0;-3.907028437E0;-8.448707581E0;4.006824017E0
7.131465929E0;-4.860869408E0;-8.789726257E0;1.985798955E0
7.149776964E0;-3.700436592E0;-5.891527176E0;-2.330918312E-1
7.168088427E0;-2.599092484E0;-2.972267151E0;2.338385582E-1
7.186399340E0;-4.042092562E-1;-7.316083908E-1;6.426954269E-1
7.204710619E0;-2.988934517E-1;1.267064095E0;1.825642467E0
7.223021837E0;-1.098835468E0;3.637571812E0;2.642901182E0
7.241333177E0;-1.238445401E0;4.995049953E0;2.948452473E0
7.259633165E0;-6.221730709E-1;5.109113693E0;3.785712719E0
7.277943102E0;-1.618463993E-1;4.781112671E0;4.721039772E0
7.296255175E0;1.307796240E-1;4.916657448E0;5.128083229E0
7.314566637E0;1.481775045E-1;5.413708210E0;5.534715176E0
7.332877916E0;-6.461321115E-1;5.421364307E0;5.417767048E0
7.351189134E0;-1.438509941E0;5.111884117E0;4.717205048E0
7.369499865E0;-1.470966697E0;4.759035587E0;3.341602802E0
7.387810655E0;-1.341419339E0;4.127548695E0;1.453635693E0
7.406136156E0;-1.165064216E0;2.375141621E0;-1.249943256E0
7.424438647E0;4.173247814E-1;1.101150513E-1;-3.281851530E0
7.442752916E0;5.245795250E-1;-5.486253738E0;-6.874241829E0
7.461055040E0;1.217267036E0;-1.009974575E1;-1.153321838E1
7.479377916E0;1.690224409E-1;-6.515426636E0;-6.621266842E0
7.497689257E0;8.755260706E-1;-6.624526978E-1;-2.756876469E0
7.515997423E0;1.972871661E0;4.666888237E0;-1.871163845E0
7.534311449E0;4.933433533E-1;2.127662659E0;-1.859009266E0
7.552621446E0;3.778781891E-1;-6.858044624E0;-3.147406578E-1
7.570933946E0;-3.290433884E-1;-1.294736099E1;1.225837994E1
7.589245043E0;-2.313636303E0;-1.003632164E1;1.286983490E1
7.607556017E0;-2.504629135E0;-1.586971283E0;3.740991116E0
7.625867296E0;-4.757951736E0;2.566429138E0;-4.000411034E-1
7.644178392E0;-7.274569035E0;1.963476181E0;9.573297501E-1
7.662489366E0;-6.031566143E0;7.721338272E-1;2.113705635E0
7.680800951E0;-3.371752262E0;4.347972870E-1;2.369070530E0
7.699111803E0;-1.734487057E0;-2.223472595E-1;2.951911688E0
7.717409959E0;1.063506603E0;-8.076515198E-1;3.240396261E0
7.735734239E0;4.531331062E0;-5.432806015E-1;2.244498968E0
7.754046679E0;5.613880157E0;-3.752126694E-1;2.165092707E0
7.772356798E0;4.283274651E0;6.094989777E-1;5.973355174E-1
7.790667772E0;3.198138714E0;2.077394485E0;1.832121611E-1
7.808979052E0;1.464422464E0;2.837340355E0;8.873203397E-1
7.827290087E0;4.829584360E-1;3.256918907E0;1.092463493E0
7.845601305E0;9.754685760E-1;3.357426167E0;9.365183115E-2
7.863912523E0;1.224996567E0;2.600127220E0;-2.350465059E0
7.882224901E0;7.029007077E-1;1.076690674E0;-3.713257313E0
7.900535815E0;3.974658847E-1;7.971563339E-1;-3.476414204E0
7.918845812E0;5.778800249E-1;9.208126068E-1;-2.553002834E0
7.937152452E0;1.245866656E0;7.595005035E-1;-2.259540319E0
7.955468248E0;3.225935459E0;3.735170364E-1;-2.889495850E0
7.973779405E0;5.618928909E0;-7.413387299E-2;-2.904336929E0
7.992090441E0;7.533261299E0;-4.094324112E-1;-1.162694693E0
8.010402697E0;6.852945328E0;-3.215436935E-1;4.007566273E-1
8.028712999E0;4.714659214E0;-3.297834396E-1;-3.864537776E-1
8.047024279E0;4.196665764E0;-2.719352722E0;-2.185363054E0
8.065329516E0;5.547035217E0;-4.811259270E0;-2.112994671E0
8.083642870E0;3.159198284E0;-4.983718872E0;-2.309323549E0
8.101957140E0;1.239338160E0;-4.250522614E0;-1.868087292E0
8.120268663E0;6.500163078E-1;-3.551220894E0;-1.492800713E0
8.138579698E0;-9.603509307E-1;-4.521095276E0;1.675593019E0
8.156891222E0;-3.294603825E0;-6.806701660E0;3.904479504E0
8.175202440E0;-6.051227093E0;-8.273593903E0;2.880873919E0
8.193508959E0;-4.982325554E0;-5.555620193E0;3.167977333E-1
8.211827318E0;-2.507942200E0;-2.623652458E0;4.972259998E-1
8.230135607E0;-5.915666819E-1;-6.874628067E-1;1.195579529E0
8.248446825E0;3.143804073E-1;1.252250671E0;2.290241241E0
8.266758104E0;4.534503222E-1;2.955456734E0;2.246120214E0
8.285070421E0;8.598613739E-2;3.998972893E0;2.682731152E0
8.303380297E0;5.416932106E-1;4.419836521E0;4.110826969E0
8.321690294E0;8.151189089E-1;4.517517090E0;5.228298187E0
8.340002489E0;4.262830019E-1;4.776489735E0;5.801709175E0
8.358313341E0;-4.524035454E-1;4.921503067E0;5.788335800E0
8.376624864E0;-1.452305317E0;4.868453026E0;5.654893398E0
8.394924669E0;-2.012891531E0;4.710855007E0;5.249106884E0
8.413236254E0;-2.018649817E0;4.451457977E0;3.826606989E0
8.431548265E0;-1.683990121E0;3.720986366E0;1.570224285E0
8.449859361E0;-1.178749323E0;2.054911137E0;-1.435151577E0
8.468170031E0;5.905313492E-1;-4.496383667E-1;-4.262977600E0
8.486483934E0;1.424071312E0;-5.170585632E0;-8.714430809E0
8.504793444E0;1.390371561E0;-8.151018143E0;-1.120049286E1
8.523117174E0;-2.046940327E-1;-5.146930695E0;-6.361749649E0
8.541425157E0;1.138573885E0;-1.611347198E-1;-3.255915165E0
8.559736620E0;1.089786053E0;1.953749657E0;-2.837835312E0
8.578047716E0;-5.189013481E-2;-3.791946411E0;-3.149396896E0
8.596358690E0;2.202875137E0;-1.251962471E1;3.590009689E0
8.614670030E0;-2.539343357E0;-1.257885456E1;1.343823433E1
8.632981249E0;-2.240718842E0;-2.852156639E0;8.304794312E0
8.651292833E0;-2.809097767E0;4.095050335E0;2.013526201E0
8.669603624E0;-6.607141495E0;4.420933247E0;2.849751472E0
8.687914720E0;-6.890347958E0;1.878329754E0;2.169906616E0
8.706221117E0;-2.950034618E0;7.393255234E-1;1.595659733E0
8.724537035E0;-1.939596176E0;-5.005578995E-1;2.237189293E0
8.742848070E0;5.072920322E-1;-1.906115532E0;2.842693567E0
8.761159288E0;5.088531971E0;-1.699985504E0;2.588383913E0
8.779470567E0;5.688464642E0;-7.891387939E-1;1.358879566E0
8.797781603E0;4.409009933E0;6.832628250E-1;-4.485441446E-1
8.816092943E0;3.644695044E0;2.960241318E0;-6.331644058E-1
8.834398120E0;1.456147790E0;4.189244747E0;8.381659985E-1
8.852715196E0;-2.623282075E-1;4.373401642E0;1.637488961E0
8.871026232E0;-6.681871414E-1;3.812085629E0;8.964239359E-1
8.889337450E0;-8.241735101E-1;2.590085983E0;-7.471032739E-1
8.907648790E0;-1.078975916E0;1.076704025E0;-2.541746140E0
8.925959825E0;-5.522870421E-1;6.498441696E-1;-4.333549023E0
8.944270922E0;8.313696384E-1;5.617418289E-1;-4.714702606E0
8.962580981E0;3.566820145E0;-4.815673828E-2;-3.955348492E0
8.980893175E0;6.538454056E0;-4.805088043E-2;-3.223923683E0
8.999204149E0;8.130995750E0;7.318992615E-1;-1.923589468E0
9.017504137E0;6.928806305E0;7.864227295E-1;-1.993039846E-1
9.035826708E0;4.897228241E0;-7.151269913E-1;3.243346214E-1
9.054137804E0;2.658937454E0;-2.731803894E0;-2.430634260E0
9.072449083E0;2.127272367E0;-3.951000214E0;-3.172696829E0
9.090761400E0;3.208969831E0;-4.834475517E0;-2.124502420E0
9.109071215E0;1.311550856E0;-5.934136391E0;-1.701613903E0
9.127382372E0;5.742477179E-1;-5.321196556E0;-1.574306607E0
9.145693651E0;9.447741508E-1;-4.189967155E0;-1.443043947E0
9.164005907E0;-8.951207995E-1;-4.924841881E0;1.507273793E0
9.182315721E0;-2.929222822E0;-7.204770088E0;3.113698483E0
9.200627062E0;-5.717565536E0;-8.480302811E0;1.843227625E0
9.218934191E0;-6.382091045E0;-5.879126549E0;3.666949272E-1
9.237249132E0;-4.510055065E0;-3.080921173E0;9.505335093E-1
9.255560655E0;-1.721637368E0;-9.829034805E-1;1.347199678E0
9.273871874E0;-9.232735634E-2;8.733692169E-1;1.783113718E0
9.292184191E0;-9.957551956E-2;3.094656944E0;1.851126671E0
9.310494921E0;-7.407033443E-2;4.639555931E0;2.886035919E0
9.328805223E0;3.105831146E-1;5.085981369E0;4.036544800E0
9.347111681E0;7.004398108E-1;5.030431747E0;5.375707626E0
9.365413989E0;8.561511040E-1;5.225475788E0;6.073261261E0
9.383727038E0;5.500007868E-1;5.483867168E0;5.865100861E0
9.402038744E0;-2.464909554E-1;6.033748150E0;5.688058853E0
9.420350267E0;-1.046580911E0;6.412402153E0;5.172702789E0
9.438662157E0;-1.351481199E0;5.930595398E0;3.522334576E0
9.456972032E0;-1.295147538E0;4.557631969E0;1.203076363E0
9.475284715E0;-1.277598858E0;2.401364803E0;-2.350935936E0
9.493595384E0;1.845856309E0;-8.006668091E-1;-5.292824745E0
9.511919848E0;4.468125343E0;-7.377012253E0;-8.871059418E0
9.530228197E0;2.571146011E0;-1.022093391E1;-9.275503159E0
9.548542101E0;-1.642679214E0;-6.009688377E0;-6.211764336E0
9.566850450E0;-1.285235405E0;5.186080933E-2;-3.050341368E0
9.585161425E0;-1.693241954E0;3.520201206E0;-1.050539017E0
9.603471362E0;-2.600617647E0;-1.136608124E0;-9.566249847E-1
9.621780382E0;1.022891164E0;-1.016108418E1;1.454811096E0
9.640095079E0;-3.016015053E0;-1.222139359E1;1.288789558E1
9.658406053E0;-2.686785221E0;-5.582221985E0;8.294928551E0
9.676717333E0;-1.930332661E0;9.716482162E-1;2.280298948E0
9.695028490E0;-4.706886292E0;2.736411572E0;3.165054321E0
9.713339464E0;-5.137044907E0;2.428016663E0;3.346263409E0
9.731652148E0;-2.422339201E0;1.553336620E0;2.293091059E0
9.749961779E0;-1.772660136E0;-1.088333130E-2;2.308207512E0
9.768272997E0;-2.630102634E-1;-1.565168381E0;2.728495598E0
9.786584337E0;2.842868328E0;-1.495109558E0;2.033673286E0
9.804883898E0;3.955261230E0;-5.204591751E-1;7.070757151E-1
9.823205248E0;2.659513474E0;4.342765808E-1;2.181227207E-1
9.841506945E0;1.688473701E0;1.920066357E0;5.632085800E-1
9.859829149E0;1.375299692E-1;2.812927246E0;1.282330275E0
9.878139696E0;-6.650246978E-1;3.042598724E0;6.670156717E-1
9.896451036E0;-4.320183992E-1;2.790545464E0;-1.328511953E0
9.914762866E0;5.539608002E-2;2.188190937E0;-2.907440901E0
9.933074511E0;4.923926592E-1;1.525861740E0;-3.086462736E0
9.951383531E0;8.803790808E-1;1.241708755E0;-2.053753614E0
9.969695909E0;1.757185698E0;1.437925339E0;-1.102092147E0
9.988011157E0;2.816072702E0;1.348256111E0;-1.376678467E0
1.000631822E1;4.291530609E0;9.247360229E-1;-2.977056265E0
1.002462920E1;6.336259842E0;3.587751389E-1;-2.606485367E0
1.004293914E1;7.484845161E0;-1.753196716E-1;-9.313473701E-1
1.006124279E1;6.314053535E0;9.078979492E-3;-7.584297657E-2
1.007956261E1;4.492355824E0;3.344755173E-1;-1.181271911E0
1.009787389E1;2.892564535E0;-1.384366035E0;-3.923753023E0
1.011618028E1;4.445151329E0;-3.546536446E0;-3.131116390E0
1.013449626E1;5.396376610E0;-4.855971336E0;-2.506148100E0
1.015280724E1;2.581390381E0;-5.221431732E0;-2.598823786E0
1.017111852E1;9.729918242E-1;-4.849052429E0;-2.490455627E0
1.018942961E1;-7.292221785E-1;-4.462724686E0;9.155040979E-2
1.020774077E1;-2.780299187E0;-5.466187477E0;3.551895380E0
1.022605187E1;-5.294411659E0;-7.217155457E0;3.742872715E0
1.024435710E1;-6.410070419E0;-7.034144402E0;1.771290421E0
1.026267095E1;-4.959713936E0;-4.230972290E0;-1.407396793E-1
1.028098546E1;-2.413190603E0;-1.920241356E0;1.657013893E-1
1.029929643E1;-1.713922024E-1;4.706954956E-2;1.342753887E0
1.031760747E1;4.169034958E-2;1.927562714E0;2.060088158E0
1.033591881E1;-6.427623034E-1;3.832938194E0;2.418792248E0
1.035423009E1;-8.268952370E-1;4.244778633E0;3.010332108E0
1.037254253E1;1.089349985E-1;3.731729031E0;3.850201845E0
1.039085240E1;7.322596312E-1;3.565428734E0;4.497384071E0
1.040916344E1;9.067167044E-1;3.829123497E0;5.181756020E0
1.042747447E1;3.022207022E-1;4.191021919E0;5.382639885E0
1.044578569E1;-5.362610817E-1;4.878848076E0;5.172748566E0
1.046409709E1;-1.392747998E0;5.467437744E0;4.186872482E0
1.048240807E1;-1.759516358E0;5.001179695E0;2.224527121E0
1.050071739E1;-1.737345338E0;3.761097908E0;-6.704525948E-1
1.051903038E1;-7.951872349E-1;1.695129395E0;-4.495773315E0
1.053734142E1;6.818976402E-1;-1.847543716E0;-8.684445381E0
1.055565264E1;1.301232815E0;-6.908686638E0;-1.128383255E1
1.057396514E1;8.891757727E-1;-5.947321892E0;-6.482627869E0
1.059227501E1;-2.882076502E-1;-1.477157593E0;-2.050241709E0
1.061058629E1;1.100356460E0;2.451766014E0;-1.329380035E0
1.062889739E1;2.269792557E-2;-7.132434845E-1;-3.270891190E0
1.064720861E1;4.887478352E-1;-1.113333988E1;-9.174003601E-1
1.066551946E1;-1.189527392E0;-1.356083584E1;8.212816238E0
1.068382482E1;-2.577279806E0;-3.840935707E0;1.011139870E1
1.070213024E1;-1.128748894E0;2.007220745E0;4.472858429E0
1.072045391E1;-3.979803562E0;1.265601158E0;5.018577099E0
1.073876128E1;-5.548184395E0;2.962360382E-1;4.817920685E0
1.075706359E1;-2.649503946E0;6.572132111E-1;3.682888746E0
1.077538634E1;-7.605346441E-1;5.261564255E-1;4.092944145E0
1.079369762E1;2.326372862E-1;-2.259654999E-1;3.219212532E0
1.081200743E1;2.352936745E0;-1.067531586E0;2.468202591E0
1.083031993E1;3.548960447E0;-8.022375107E-1;1.002994776E0
1.084863121E1;3.037881851E0;-8.868217468E-2;-1.542653322E0
1.086694249E1;2.514354229E0;6.701307297E-1;-2.583904028E0
1.088524755E1;1.302623987E0;1.519192696E0;-1.818958163E0
1.090355345E1;4.936611056E-1;2.297315598E0;-5.988011956E-1
1.092186443E1;4.521360993E-1;2.802503109E0;1.981401443E-2
1.094017601E1;9.416303635E-1;3.052260876E0;1.947709918E-1
1.095848802E1;1.871064663E0;2.896880627E0;1.264141798E-1
1.097680077E1;2.404513359E0;2.558205605E0;1.413560808E-1
1.099510967E1;2.594918728E0;2.074828148E0;8.930134028E-2
1.101341997E1;2.350134134E0;1.585359573E0;-9.215283394E-1
1.103173131E1;1.403275013E0;7.374591827E-1;-4.404383183E0
1.105004283E1;1.254328728E0;-8.050823212E-2;-7.222282887E0
1.106836492E1;3.390477657E0;-1.041257858E0;-6.038558960E0
1.108667613E1;5.484978676E0;-2.056720734E0;-3.567546606E0
1.110498204E1;6.425023556E0;-2.059075356E0;-1.286236286E0
1.112329845E1;5.241203785E0;-8.475036621E-1;-8.796954155E-1
1.114161064E1;4.653865337E0;-1.032855034E0;-1.012430549E0
1.115992070E1;5.362961292E0;-3.593191147E0;-4.460040927E-1
1.117822753E1;3.983245850E0;-4.681063652E0;-6.377335191E-1
1.119654302E1;2.303871632E0;-4.870483398E0;-1.228047132E0
1.121485411E1;1.867593050E0;-5.121617317E0;-1.050442815E0
1.123316539E1;-1.020200253E-1;-6.134975433E0;6.951879263E-1
1.125147643E1;-3.358853817E0;-8.125627518E0;2.075815916E0
1.126978777E1;-6.564302444E0;-8.778236389E0;1.338876247E0
1.128809874E1;-7.028720379E0;-4.911316872E0;1.174367189E0
1.130641008E1;-5.162146568E0;-1.377253532E0;1.694837570E0
1.132471526E1;-2.404801607E0;7.280883789E-1;1.656647444E0
1.134303203E1;-5.112266541E-1;1.723258018E0;1.590523124E0
1.136134246E1;-1.973867416E-2;2.856180191E0;2.907200336E0
1.137965166E1;7.244989872E-1;4.100762367E0;3.685071468E0
1.139796568E1;1.973744869E0;4.892463684E0;4.647995472E0
1.141627690E1;2.099988461E0;5.066018105E0;5.732309818E0
1.143458800E1;5.788770914E-1;4.728495121E0;5.412771702E0
1.145289806E1;-1.129614353E0;4.335989475E0;5.047992229E0
1.147121050E1;-2.080382347E0;4.486357212E0;4.944287300E0
1.148952159E1;-1.938634753E0;4.824955940E0;4.556714535E0
1.150783293E1;-1.870527029E0;4.438066483E0;3.208850384E0
1.152613902E1;-1.639566302E0;3.236569881E0;7.334246635E-1
1.154445793E1;-7.287573814E-1;1.202711105E0;-2.143321991E0
1.156276781E1;1.306657553E0;-9.556627274E-1;-3.632570505E0
1.158107408E1;1.882315397E0;-5.634182930E0;-7.819174767E0
1.159938823E1;9.677617550E-1;-8.020387650E0;-1.187048149E1
1.161769933E1;-2.442875385E0;-4.414459229E0;-7.430286407E0
1.163601061E1;1.044777632E-1;-7.262516022E-2;-4.163982868E0
1.165432305E1;-7.556359172E-1;-2.365061760E0;-2.538507700E0
1.167263292E1;-1.534572363E0;-7.635322571E0;2.284496307E0
1.169094414E1;-2.423740864E0;-1.117651367E1;9.606730461E0
1.170925530E1;-2.006823540E0;-4.752447128E0;9.923840523E0
1.172756645E1;-1.226650715E0;1.608744621E0;4.930093288E0
1.174587755E1;-3.964554548E0;2.068154335E0;4.080949783E0
1.176418859E1;-4.326354027E0;6.673603058E-1;4.455054283E0
1.178250078E1;-4.389573932E-1;5.646095276E-1;2.907165527E0
1.180081090E1;2.012406826E0;2.391872406E-1;3.692066908E0
1.181911864E1;3.685441971E0;-3.283405304E-2;3.061588287E0
1.183743328E1;4.837631226E0;1.818847656E-1;1.522571564E0
1.185574449E1;4.064320564E0;9.063053131E-1;-1.502363682E-1
1.187405528E1;2.483281612E0;1.839998245E0;-2.418244362E0
1.189236705E1;8.605811596E-1;2.576928139E0;-2.067309618E0
1.191067931E1;-2.974737287E-1;2.882187843E0;-5.610489845E-2
1.192898906E1;-9.842258692E-1;3.303881168E0;8.909208775E-1
1.194730040E1;-1.446945429E0;3.205076218E0;7.245954871E-1
1.196560680E1;-1.051536441E0;2.261516571E0;-3.134532571E-1
1.198392272E1;-4.713562131E-1;8.364715576E-1;-1.379351377E0
1.200223375E1;-2.757883072E-2;1.288356781E-1;-2.194627047E0
1.202053392E1;1.916850805E0;6.959161758E-1;-2.911282778E0
1.203884538E1;4.970468521E0;1.034383774E0;-3.266736269E0
1.205715715E1;7.365072250E0;1.006978035E0;-2.829144955E0
1.207546746E1;8.050799370E0;5.729408264E-1;-1.918520927E0
1.209377934E1;6.140197277E0;-7.184839249E-1;-1.708794832E0
1.211208879E1;3.700016975E0;-1.618569374E0;-3.176871777E0
1.213040276E1;2.560238838E0;-1.261150360E0;-4.541873932E0
1.214870952E1;3.585119963E0;-1.413438797E0;-2.825478554E0
1.216702947E1;5.501232147E0;-3.298501968E0;-1.150081158E0
1.218534526E1;4.359893799E0;-4.212178230E0;-1.171694040E0
1.220365270E1;1.448605299E0;-4.620982170E0;-2.374178648E0
1.222196617E1;-1.859353781E-1;-5.427044868E0;-1.572059274E0
1.224027867E1;-2.339603901E0;-6.631300926E0;1.555947423E0
1.225858995E1;-5.405400276E0;-8.202260017E0;3.198607206E0
1.227690093E1;-7.475110531E0;-8.894378662E0;2.353447437E0
1.229521221E1;-6.062203407E0;-6.164159775E0;9.703302383E-2
1.231351940E1;-3.838752270E0;-3.049980164E0;-4.681198597E-1
1.233183751E1;-1.077548742E0;-5.359334946E-1;-1.232607365E-1
1.235014562E1;6.660690308E-1;1.419068336E0;1.548350334E0
1.236845684E1;8.405390978E-1;3.020314217E0;2.744402170E0
1.238676818E1;6.243182421E-1;4.299315929E0;3.532141924E0
1.240507903E1;7.800884247E-1;5.380639553E0;4.434467793E0
1.242339134E1;9.770520926E-1;6.137415409E0;5.361668587E0
1.244170146E1;6.631563902E-1;6.111201286E0;6.056066513E0
1.246001250E1;-6.344950199E-2;5.617038250E0;5.909955025E0
1.247832353E1;-8.978240490E-1;5.118993759E0;5.736658573E0
1.249663512E1;-1.499464631E0;4.493622303E0;5.309302330E0
1.251494499E1;-1.787928462E0;3.890949726E0;4.267076015E0
1.253325719E1;-1.908768415E0;3.065529346E0;2.042332649E0
1.255156944E1;-1.692528844E0;1.115468502E0;-1.668312550E0
1.256987981E1;2.173423767E-3;-1.778565407E0;-5.820326328E0
1.258819121E1;2.182872295E-1;-6.450263023E0;-9.672710419E0
1.260649724E1;1.154884100E0;-7.612376213E0;-1.063886929E1
1.262481279E1;4.752676487E-1;-4.431959152E0;-7.451239586E0
1.264312407E1;1.021239758E-1;2.976417542E-3;-3.962880373E0
1.266143492E1;-9.426140785E-1;3.737780094E0;-1.351040840E0
1.267974645E1;-1.561069846E0;-5.253820419E-1;-1.391740084E0
1.269805773E1;1.441678047E0;-8.806549072E0;5.676515102E-1
1.271636870E1;-1.915774584E0;-1.243571663E1;1.236505604E1
1.273467400E1;-1.890077949E0;-7.511328697E0;1.017648888E1
1.275299108E1;-1.021896362E0;3.639574051E-1;3.470748663E0
1.277130120E1;-4.352482796E0;3.117853165E0;2.636252880E0
1.278961315E1;-7.693554878E0;7.846832275E-1;3.622602463E0
1.280792443E1;-5.261740208E0;-2.010583878E-1;2.166459560E0
1.282623577E1;-3.280297279E0;1.914548874E-1;2.282392979E0
1.284454680E1;-1.148026228E0;1.124973297E-1;2.503109694E0
1.286285491E1;2.532397509E0;-1.982631683E-1;2.175173759E0
1.288115935E1;5.021178722E0;-1.408519745E-1;1.559603453E0
1.289946953E1;5.294011116E0;3.636169434E-1;1.117022514E0
1.291778008E1;5.144125938E0;2.009148121E0;2.559403181E-1
1.293609258E1;3.368651867E0;3.850072861E0;-2.007608414E-1
1.295440386E1;1.200015187E0;4.775807858E0;-4.291687906E-1
1.297271459E1;8.410781622E-2;4.038127899E0;-1.531992316E0
1.299102495E1;-2.566061020E-1;2.140013218E0;-2.999577284E0
1.300933556E1;4.079449177E-1;1.129191399E0;-2.980764866E0
1.302765831E1;1.211675882E0;7.837562561E-1;-1.966718912E0
1.304595519E1;1.640064955E0;6.736602783E-1;-1.135018826E0
1.306427031E1;2.000378609E0;1.065145493E0;-1.274316072E0
1.308258116E1;2.630451202E0;1.394774437E0;-2.534833670E0
1.310090581E1;3.653802395E0;5.653095245E-1;-3.192164183E0
1.311921654E1;5.260217667E0;-7.756862640E-1;-2.167549849E0
1.313752519E1;5.393259525E0;-1.663238525E0;-1.158096790E0
1.315583617E1;3.491347790E0;-1.591740608E0;-2.290537119E0
1.317414733E1;2.762412071E0;-1.346590996E0;-4.246773243E0
1.319245976E1;4.032431126E0;-2.880300522E0;-4.118302822E0
1.321076988E1;5.765970230E0;-4.908809662E0;-2.425391197E0
1.322908092E1;5.839675426E0;-4.783065796E0;-1.510627985E0
1.324738732E1;3.726718426E0;-3.342872620E0;-8.540812135E-1
1.326570323E1;2.624921799E0;-2.764715195E0;-6.450832486E-1
1.328401445E1;4.329159260E-1;-4.023626328E0;1.124770343E-1
1.330232530E1;-2.700170040E0;-7.044082642E0;1.493603349E0
1.332063780E1;-7.217174053E0;-1.049142551E1;1.747729778E0
1.333894341E1;-9.339534760E0;-9.710262299E0;1.707669020E0
1.335725865E1;-6.800392151E0;-4.610317230E0;1.113661051E0
1.337556529E1;-3.918754101E0;-8.766393661E-1;4.930615425E-1
1.339388115E1;-1.536022544E0;1.471769333E0;6.367630959E-1
1.341219249E1;-8.174701333E-1;3.180479527E0;1.692607760E0
1.343050463E1;-1.330626011E-1;4.093064785E0;2.656791687E0
1.344881474E1;1.268875837E0;4.850258827E0;3.583281279E0
1.346712608E1;2.270474434E0;5.531617641E0;5.173712730E0
1.348543736E1;2.387184143E0;6.421622276E0;6.166274071E0
1.350374230E1;1.323797703E0;6.670444012E0;6.287850857E0
1.352205907E1;-1.659628153E-1;6.272906303E0;5.754897594E0
1.354036962E1;-1.524648786E0;5.751577377E0;5.303482533E0
1.355868157E1;-1.627785206E0;4.905117035E0;4.211108208E0
1.357699278E1;-1.386698723E0;3.673073769E0;1.934636354E0
1.359530370E1;-1.572529912E0;1.605625153E0;-1.609031677E0
1.361360411E1;5.828912258E-1;-5.841789246E-1;-3.233616114E0
1.363192382E1;1.142970324E0;-5.391785622E0;-6.050243378E0
1.365023735E1;9.107768536E-1;-9.727482796E0;-1.229282761E1
1.366854869E1;-1.450019836E0;-6.470122337E0;-8.670875549E0
1.368685967E1;-3.286124468E-1;-9.624471664E-1;-4.517601490E0
1.370517070E1;6.550093889E-1;4.289638042E0;-2.215804577E0
1.372348204E1;-1.085709333E0;1.348071098E0;-1.797253132E0
1.374179308E1;-3.097100258E-1;-8.195731163E0;3.698511124E-1
1.376010442E1;-1.371582747E0;-1.439108372E1;1.341672516E1
1.377841539E1;-1.060196519E0;-9.450632095E0;1.189002228E1
1.379672661E1;-1.147068977E0;-4.922075272E-1;3.246110678E0
1.381503771E1;-4.763636112E0;2.812574863E0;2.139490604E0
1.383335015E1;-7.200150490E0;1.988314629E0;2.708977461E0
1.385166002E1;-4.656602383E0;1.212144852E0;2.053089857E0
1.386997130E1;-2.429572582E0;7.056379318E-1;2.888990641E0
1.388828258E1;-3.675202131E-1;1.033239365E-1;3.101738214E0
1.390659380E1;2.949893713E0;-3.782768250E-1;2.505627632E0
1.392490477E1;5.388814449E0;-3.194332123E-1;1.397418499E0
1.394321568E1;4.972901344E0;5.483913422E-2;9.068219066E-1
1.396152812E1;4.424984455E0;1.792024612E0;2.960174084E-1
1.397983757E1;2.723140717E0;3.202014446E0;7.279329300E-1
1.399814897E1;5.686123967E-1;3.742311478E0;3.778012395E-1
1.401645568E1;-9.876592159E-1;3.631173134E0;-9.575129747E-1
1.403476982E1;-1.476285934E0;2.870703697E0;-2.848179579E0
1.405308287E1;-1.617274880E0;1.573214531E0;-3.903536081E0
1.407139299E1;-1.343606234E0;8.912658691E-1;-3.470546961E0
1.408970525E1;-6.673563719E-1;1.047348022E0;-1.999435902E0
1.410801567E1;1.087260008E0;9.196691513E-1;-1.494434834E0
1.412632750E1;4.214221001E0;8.272800446E-1;-2.014328480E0
1.414463268E1;6.763038635E0;8.499240875E-2;-2.014420748E0
1.416294957E1;7.489422798E0;-8.629207611E-1;-1.533330917E0
1.418126512E1;6.236893654E0;-1.490996361E0;-1.178828597E0
1.419957189E1;4.874053478E0;-9.610424042E-1;-2.258381128E0
1.421788286E1;3.752678156E0;-7.966861725E-1;-3.617265224E0
1.423619420E1;4.351032257E0;-2.547999382E0;-3.254263401E0
1.425450524E1;5.807204723E0;-5.224659920E0;-2.411597729E0
1.427281536E1;4.711837292E0;-5.234869957E0;-1.987206817E0
1.429112755E1;2.387668133E0;-4.077676773E0;-7.887811661E-1
1.430943883E1;1.129913688E0;-3.617515564E0;2.126182914E-1
1.432774992E1;-6.819381118E-1;-4.503368378E0;1.057245135E0
1.434606114E1;-3.469018459E0;-7.240109444E0;2.008447170E0
1.436437218E1;-7.178072929E0;-9.667072296E0;1.700982213E0
1.438268041E1;-8.184168816E0;-8.145628929E0;7.522057891E-1
1.440099474E1;-6.386752129E0;-4.144263268E0;6.301294565E-1
1.441930278E1;-4.116292000E0;-1.107795715E0;5.686320066E-1
1.443761681E1;-1.786775351E0;9.729499817E-1;4.995162487E-1
1.445592815E1;-5.233037472E-1;2.274538994E0;1.494371891E0
1.447424034E1;-5.761504173E-3;3.063522339E0;2.320767403E0
1.449255034E1;1.308484316E0;4.205709457E0;3.768763065E0
1.451086144E1;2.133039713E0;5.200572491E0;5.409790039E0
1.452917272E1;2.384235620E0;6.281627655E0;6.143868446E0
1.454748101E1;1.430726767E0;6.657606125E0;6.399993420E0
1.456578398E1;3.527700901E-2;6.266428947E0;6.034487724E0
1.458409612E1;-1.254442811E0;5.960827827E0;5.985131741E0
1.460240599E1;-1.743411183E0;5.618073463E0;5.366846561E0
1.462071776E1;-1.618138313E0;4.876363277E0;3.547664881E0
1.463902782E1;-1.464661598E0;3.279828072E0;4.695053101E-1
1.465733983E1;-6.032307148E-1;1.084042549E0;-3.117384434E0
1.467565074E1;1.060307503E0;-1.793435097E0;-5.632190228E0
1.469396178E1;1.374349594E0;-7.446799278E0;-8.570847511E0
1.471228667E1;1.247949600E0;-9.552102089E0;-9.769011497E0
1.473059654E1;-2.539511681E0;-5.082005501E0;-5.256115437E0
1.474890636E1;-2.011917114E0;2.404613495E-1;-2.537923336E0
1.476721782E1;-2.405253887E0;2.510573387E0;-1.666223526E0
1.478552397E1;-3.661347389E0;-4.342403412E0;-2.696658611E0
1.480383995E1;-4.203495979E0;-1.094616890E1;4.051062584E0
1.482213921E1;-4.316956520E0;-1.046307278E1;1.027450466E1
1.484046318E1;-8.051645756E-2;-4.055773735E0;7.657731056E0
1.485877062E1;-3.199890852E-1;1.570815086E0;3.719998837E0
1.487707286E1;-2.679403305E0;1.570575714E0;4.696689606E0
1.489539568E1;-2.629874706E0;1.280889511E-1;4.659190178E0
1.491370073E1;-1.204775572E-1;-5.442914963E-1;4.944040298E0
1.493201811E1;2.079330921E0;3.747844696E-2;3.826608658E0
1.495032921E1;3.615438938E0;1.008320808E0;1.875544786E0
1.496864031E1;3.874909639E0;1.494380951E0;5.664012432E-1
1.498695152E1;3.952794075E0;1.816090584E0;-7.604386806E-1
1.500526256E1;2.917573214E0;2.022747040E0;-1.323703051E0
1.502357036E1;8.452957273E-1;2.247710228E0;-8.044986129E-1
1.504188390E1;-1.036502719E0;2.368153572E0;-5.568677187E-1
1.506019585E1;-1.970287681E0;2.157541275E0;-9.717592597E-1
1.507850719E1;-1.672206044E0;2.046534538E0;-1.430777669E0
1.509681853E1;-6.353375912E-1;1.838900566E0;-2.040017366E0
1.511512944E1;-9.303927422E-3;1.189923286E0;-2.248754501E0
1.513344072E1;4.898184538E-1;8.684558868E-1;-1.943914771E0
1.515175182E1;1.135192752E0;1.231981277E0;-1.843561530E0
1.517006310E1;2.077543736E0;1.113532066E0;-2.399943590E0
1.518837706E1;3.860988855E0;5.091514587E-1;-3.171660423E0
1.520668535E1;6.399252892E0;-2.668228149E-1;-3.246008635E0
1.522498131E1;7.989933491E0;-1.061041832E0;-2.140319347E0
1.524330895E1;6.195812702E0;-1.583884239E0;-1.103448510E0
1.526161192E1;3.927100897E0;-1.208579063E0;-1.689214706E0
1.527992974E1;2.082227230E0;-1.333209991E0;-3.769906759E0
1.529824132E1;3.146671534E0;-3.100529671E0;-3.882606506E0
1.531655211E1;5.502868176E0;-4.933282852E0;-2.957669735E0
1.533486339E1;4.197371960E0;-4.743039131E0;-2.197068930E0
1.535317467E1;2.234696388E0;-3.745557785E0;-1.412592888E0
1.537148693E1;1.658721924E0;-2.784753799E0;-3.021882474E-2
1.538979698E1;-4.168411493E-1;-3.656931877E0;2.528892040E0
1.540810796E1;-3.532550812E0;-6.439580917E0;3.763804436E0
1.542641472E1;-7.168989182E0;-9.368079185E0;2.234274387E0
1.544473064E1;-7.206467628E0;-8.284139633E0;6.358920336E-1
1.546304119E1;-4.508794308E0;-4.087647438E0;7.284862995E-1
1.548135173E1;-2.025424719E0;-8.212556839E-1;4.226605892E-1
1.549966527E1;-6.786001921E-1;1.450934887E0;1.335968733E0
1.551797466E1;-2.608214617E-1;3.393578529E0;2.875438213E0
1.553628600E1;7.874464989E-2;4.599698067E0;2.952984095E0
1.555459117E1;1.341513634E0;5.299768448E0;3.901406527E0
1.557290850E1;2.094382763E0;5.697019577E0;5.087961197E0
1.559122032E1;1.980968118E0;6.088452816E0;6.587903976E0
1.560953063E1;1.172514677E0;6.016407967E0;6.416524887E0
1.562784184E1;-1.514160633E-1;5.496335983E0;5.837106705E0
1.564615319E1;-1.166766405E0;4.921723366E0;5.233035564E0
1.566445372E1;-1.561187983E0;4.129573822E0;4.331717014E0
1.568276531E1;-1.983473063E0;3.107628822E0;2.003020287E0
1.570108733E1;-1.818478227E0;1.184915543E0;-1.227879047E0
1.571938640E1;-9.300395250E-1;-1.080718994E0;-3.374310732E0
1.573769768E1;3.732633591E-2;-6.737256050E0;-9.422804832E0
1.575600896E1;-7.622594833E-1;-1.178731441E1;-1.601515770E1
1.577432024E1;-2.548187971E0;-6.081768990E0;-5.825074673E0
1.579263256E1;-2.619857788E-1;1.084327698E-2;-1.958015442E0
1.581094188E1;1.904026270E-1;4.493750095E0;-2.118803978E0
1.582925420E1;-1.602632165E0;1.368777275E0;-1.109007835E0
1.584756487E1;-3.194419146E-1;-5.400275230E0;6.917033195E-1
1.586587541E1;-1.630493999E0;-1.192455769E1;1.244590378E1
1.588418742E1;-3.067342997E0;-1.017189693E1;1.351190186E1
1.590250072E1;-1.876000881E0;-3.552436829E0;6.093617439E0
1.592081614E1;-2.539013386E0;1.127152443E0;1.612149954E0
1.593913426E1;-3.461311817E0;1.960408211E0;9.107661247E-1
1.595744249E1;-3.428272724E0;1.110766411E0;2.246132135E0
1.597575377E1;-2.036463737E0;1.102645874E0;2.503311872E0
1.599406505E1;-2.727241516E-1;1.640044212E0;2.239708662E0
1.601237724E1;1.952046394E0;2.141303062E0;1.608545184E0
1.603068718E1;3.318946600E0;1.846292496E0;9.412286282E-1
1.604900121E1;3.910978317E0;1.485571861E0;4.538022876E-1
1.606730480E1;3.660421848E0;1.866595268E0;2.282066345E-1
1.608562078E1;2.180353165E0;2.638206482E0;7.380470634E-1
1.610393181E1;1.873791218E-1;2.849822998E0;3.319468200E-1
1.612224181E1;-1.621453166E-1;2.500030518E0;-1.252486467E0
1.614055504E1;-2.592049241E-1;1.404413223E0;-3.417841673E0
1.615886534E1;-5.003193617E-1;1.859626770E-1;-5.149827957E0
1.617717638E1;-3.184495568E-1;2.161417007E-1;-5.009040833E0
1.619548302E1;1.139889002E0;7.833709717E-1;-3.122651339E0
1.621379863E1;3.188064337E0;1.029939651E0;-1.351377130E0
1.623211022E1;4.873166561E0;9.871225357E-1;-2.972293496E-1
1.625042223E1;6.296263695E0;6.594104767E-1;-3.390085697E-2
1.626873253E1;6.740232944E0;5.388679504E-1;-4.586510062E-1
1.628703185E1;4.710666180E0;-2.391977310E-1;-1.900752783E0
1.630534300E1;2.528219223E0;-1.600564003E0;-4.070169449E0
1.632365166E1;2.345074654E0;-2.394402504E0;-4.214482784E0
1.634196752E1;4.553086758E0;-3.510274887E0;-2.517035961E0
1.636028795E1;6.129243851E0;-5.099018097E0;-1.605283499E0
1.637859947E1;4.817095757E0;-5.221973419E0;-2.049926281E0
1.639691301E1;2.251258612E0;-4.210748672E0;-2.442953110E0
1.641522154E1;1.004038334E0;-3.090342522E0;-1.672032595E0
1.643352886E1;-6.204634905E-1;-3.588788986E0;1.216954231E0
1.645184795E1;-4.489422321E0;-6.002257347E0;3.750183821E0
1.647015514E1;-8.940375328E0;-8.368865967E0;3.164037704E0
1.648846642E1;-9.198823929E0;-7.019872665E0;9.787834883E-1
1.650677745E1;-6.044766426E0;-3.613374710E0;9.541218281E-1
1.652508849E1;-3.365386963E0;-1.009662628E0;8.639130592E-1
1.654339952E1;-3.344429731E-1;1.003787041E0;9.204769135E-2
1.656171080E1;1.477259398E-1;2.746303082E0;2.104713440E0
1.658002178E1;8.640275002E-1;3.868760109E0;2.613836288E0
1.659833287E1;1.826854110E0;4.720138073E0;3.630861282E0
1.661664415E1;2.173454762E0;5.183699131E0;4.927003860E0
1.663495537E1;1.436096787E0;5.567179203E0;6.120808125E0
1.665326787E1;3.061145544E-1;5.750761032E0;6.013562202E0
1.667157781E1;-8.998311162E-1;5.736139774E0;5.548588276E0
1.668988884E1;-1.700727224E0;5.441539764E0;4.951889992E0
1.670820305E1;-1.945649028E0;4.685382843E0;3.869451523E0
1.672651103E1;-2.068361998E0;3.521283627E0;1.885244608E0
1.674482237E1;-1.789181113E0;1.496109009E0;-1.728658676E0
1.676313225E1;-1.095398307E0;-8.670387268E-1;-4.433064461E0
1.678144432E1;-2.495341301E-1;-5.983092308E0;-8.991870880E0
1.679975566E1;1.269057274E0;-9.457479477E0;-1.281953526E1
1.681806706E1;-4.582786560E-2;-6.263036728E0;-6.656755447E0
1.683637346E1;-2.165827751E-1;-1.135545731E0;-2.247389078E0
1.685468932E1;-2.534734011E-1;4.138372421E0;-1.148418903E0
1.687300060E1;-1.958443761E0;1.537839890E0;-1.240622044E0
1.689131072E1;-6.151664257E-1;-6.158757210E0;-5.432457924E-1
1.690962267E1;-2.703870535E0;-1.159895706E1;1.098595619E1
1.692793364E1;-2.660000086E0;-8.256086349E0;1.107109928E1
1.694624498E1;-1.351325274E0;-1.254917145E0;3.480309486E0
1.696455046E1;-3.208238125E0;2.114456654E0;1.490064144E0
1.698286730E1;-5.906635761E0;8.172330856E-1;2.876143456E0
1.700117858E1;-4.483759403E0;-7.579631805E-1;2.783546925E0
1.701948955E1;-1.890887856E0;-5.379323959E-1;3.253129959E0
1.703780065E1;-3.891514540E-1;-1.314964294E-1;3.123507023E0
1.705611199E1;1.950781226E0;-2.091407776E-3;2.419855833E0
1.707442314E1;3.745110035E0;6.402511597E-1;1.224374175E0
1.709273540E1;3.946239471E0;1.411994934E0;7.723187208E-1
1.711104552E1;3.616055012E0;2.705485344E0;4.795171022E-1
1.712935655E1;2.773873091E0;3.781641483E0;1.787697971E-1
1.714766783E1;8.788751364E-1;3.930252552E0;-4.935213029E-1
1.716597887E1;-9.552311897E-1;3.028129578E0;-1.853849769E0
1.718428996E1;-1.410577774E0;1.628616333E0;-3.356112480E0
1.720260118E1;-1.389525414E0;5.807542801E-1;-3.436007738E0
1.722091362E1;-9.871111512E-1;5.972194672E-2;-2.319006443E0
1.723922350E1;-5.990098119E-1;1.411218643E-1;-1.807047129E0
1.725753484E1;8.750909567E-1;3.090829849E-1;-2.771389484E0
1.727584575E1;4.006786823E0;4.688119888E-1;-4.313331127E0
1.729415819E1;6.888884544E0;-2.874526978E-1;-3.526245594E0
1.731246813E1;8.820786476E0;-6.778717041E-1;-1.280475378E0
1.733077940E1;7.185957909E0;-2.591266632E-1;-1.542673707E-1
1.734909050E1;4.151184559E0;1.528263092E-1;-7.575817704E-1
1.736740172E1;1.535266161E0;-6.838865280E-1;-3.332649708E0
1.738571276E1;1.060059547E0;-3.265800476E0;-4.575473785E0
1.740401793E1;4.529747963E0;-5.494160652E0;-3.074012756E0
1.742233531E1;6.045372486E0;-4.989233971E0;-1.341479897E0
1.744064641E1;3.617082119E0;-3.028347969E0;-8.205679059E-1
1.745895287E1;1.173266411E0;-2.076758385E0;-1.055932045E0
1.747726378E1;-1.568253040E-1;-2.668190956E0;-6.360802054E-1
1.749557964E1;-2.922554493E0;-4.825295448E0;2.143213749E0
1.751389092E1;-6.703423500E0;-7.850890160E0;3.511217833E0
1.753220079E1;-8.818971634E0;-8.371445656E0;2.613398075E0
1.755051415E1;-6.971883774E0;-4.347180367E0;8.132487535E-1
1.756882439E1;-5.047900200E0;-9.634599686E-1;1.065233946E0
1.758713555E1;-2.579737663E0;1.684119225E0;9.925079346E-2
1.760544200E1;2.320710421E-1;3.286657333E0;2.818031311E-1
1.762375798E1;6.104159355E-1;3.616631031E0;1.792924881E0
1.764206902E1;1.208358765E0;3.733246803E0;2.476861238E0
1.766038103E1;1.994552016E0;4.147286415E0;3.685073376E0
1.767869109E1;2.493635416E0;4.708565712E0;4.899612904E0
1.769700279E1;2.165413618E0;5.162198067E0;5.375963211E0
1.771531352E1;6.584923267E-1;4.673454285E0;4.668485641E0
1.773362236E1;-8.723781109E-1;3.661152840E0;4.354878426E0
1.775193584E1;-1.428175211E0;3.219559193E0;4.137758732E0
1.777023583E1;-1.491833091E0;3.048290730E0;3.177683353E0
1.778855846E1;-1.385572195E0;2.431618690E0;6.903996468E-1
1.780686974E1;-7.783889771E-1;1.102403641E0;-2.725408077E0
1.782518053E1;3.359882832E-1;-2.486915588E-1;-4.363603115E0
1.784349230E1;8.742790222E-1;-4.109930038E0;-6.040716171E0
1.786180211E1;4.158420563E-1;-7.997931480E0;-1.007780170E1
1.788011412E1;-2.161364794E0;-5.942087173E0;-7.535997391E0
1.789842516E1;-1.893803835E0;-1.096303940E0;-3.493474960E0
1.791673613E1;-1.485365629E0;2.163475513E0;-1.655110598E0
1.793504747E1;-2.820185423E0;-2.378281593E0;-1.862142801E0
1.795335875E1;1.322956085E-1;-8.817831993E0;2.304067612E0
1.797166979E1;-1.311904907E0;-9.004979134E0;1.192829132E1
1.798998107E1;-7.236564159E-2;-2.518380165E0;8.151288033E0
1.800829241E1;-1.837364435E0;1.107254028E0;4.842211723E0
1.802660332E1;-4.903417110E0;1.502904892E-1;5.762145996E0
1.804490868E1;-4.399770737E0;-3.167362213E-1;3.818516493E0
1.806322570E1;-2.240594625E0;6.814861298E-2;3.059076786E0
1.808153673E1;-2.845263481E-1;7.266921997E-1;2.791519165E0
1.809984514E1;6.701277494E-1;8.050498962E-1;2.181324005E0
1.811815904E1;1.464565992E0;2.573032379E-1;9.369825721E-1
1.813647026E1;2.578642368E0;2.748374939E-1;-4.322838783E-1
1.815477843E1;3.036134243E0;7.009925842E-1;-1.135050297E0
1.817309142E1;2.493539810E0;1.447838783E0;-1.071437597E0
1.819140440E1;1.528172374E0;2.186405659E0;-7.403708100E-1
1.820970195E1;8.063521385E-1;2.550052643E0;-7.983628511E-1
1.822801561E1;-9.117627144E-2;2.514504433E0;-9.986073971E-1
1.824632567E1;-3.319849968E-1;2.124034882E0;-1.274305582E0
1.826463707E1;2.458354235E-1;1.479531288E0;-1.305753112E0
1.828294878E1;6.299757957E-1;1.147464752E0;-9.830961227E-1
1.830125884E1;9.289720654E-1;1.351476669E0;-9.526506662E-1
1.831957256E1;9.600469470E-1;1.323310852E0;-1.904104233E0
1.833788133E1;6.666299701E-1;3.079309464E-1;-4.268105030E0
1.835620415E1;1.742401838E0;-2.913761139E-1;-5.473536015E0
1.837451323E1;4.692473412E0;-5.067701340E-1;-3.450145245E0
1.839282652E1;6.559054375E0;-1.323773384E0;-9.796261787E-1
1.841113780E1;6.090822220E0;-1.569534302E0;2.311682701E-2
1.842944908E1;4.677320004E0;-8.125429153E-1;-1.148402572E0
1.844776012E1;3.520946026E0;-1.480094910E0;-3.434323788E0
1.846607109E1;4.360345364E0;-4.111364365E0;-4.112672329E0
1.848438256E1;5.352442265E0;-5.284804344E0;-3.223298073E0
1.850269438E1;3.249221087E0;-4.727583885E0;-1.679863930E0
1.852100450E1;1.069328785E0;-3.448920250E0;-7.743796110E-1
1.853931285E1;3.681854010E-1;-2.696333885E0;-6.007392406E-1
1.855762682E1;-1.803532600E0;-3.436175346E0;1.084933639E0
1.857593810E1;-4.990705490E0;-5.394739151E0;2.940720558E0
1.859424913E1;-7.266294479E0;-6.770256996E0;3.080930233E0
1.861256011E1;-7.032457829E0;-5.575752258E0;1.688229442E0
1.863087291E1;-4.942978859E0;-3.055763245E0;6.172730923E-1
1.864918273E1;-1.884347677E0;-6.235332489E-1;3.322160244E-1
1.866749401E1;-4.379940033E-1;1.815111160E0;1.379924536E0
1.868580022E1;-4.105575085E-1;3.321523666E0;1.785983801E0
1.870411608E1;4.138190746E-1;4.099471569E0;1.961126089E0
1.872242729E1;1.497972965E0;4.843755245E0;2.973570824E0
1.874073845E1;1.907800913E0;5.590739727E0;4.343879223E0
1.875904930E1;1.834907770E0;6.399131775E0;5.145056248E0
1.877736070E1;1.297093272E0;6.190121651E0;5.221774578E0
1.879567192E1;-3.856611252E-1;4.911493778E0;4.544682980E0
1.881397545E1;-1.292830944E0;3.928910255E0;4.203545570E0
1.883229424E1;-1.379053593E0;3.252543449E0;3.769366264E0
1.885060533E1;-1.844950795E0;2.360957146E0;2.069105387E0
1.886891667E1;-2.141857862E0;9.006719589E-1;-1.240526199E0
1.888722319E1;-1.901345372E0;-8.977432251E-1;-4.128918648E0
1.890553887E1;-5.857920647E-1;-5.104044914E0;-7.376205444E0
1.892384996E1;-2.019672394E-1;-9.390644073E0;-1.353120708E1
1.894215837E1;-2.256245136E0;-6.573493958E0;-7.470827103E0
1.896047313E1;-5.491273403E-1;-1.405027390E0;-2.913773775E0
1.897878075E1;-4.876457453E-1;2.201024532E0;-2.225384235E0
1.899708287E1;-1.917673349E0;-1.901602745E0;-2.567552567E0
1.901540581E1;-6.115257740E-2;-7.840592384E0;1.241152763E0
1.903371691E1;-1.078562260E0;-9.486891747E0;1.186373997E1
1.905202812E1;-9.667122364E-1;-4.121962547E0;1.005708885E1
1.907033922E1;-1.190132022E0;1.237060070E0;4.876129627E0
1.908865044E1;-3.936532974E0;1.387684822E0;4.265303612E0
1.910694817E1;-4.682216644E0;5.119323730E-2;3.516985178E0
1.912526195E1;-2.606307745E0;-7.594490051E-1;3.325369596E0
1.914358336E1;-2.359932661E-1;-6.088466644E-1;3.289010286E0
1.916189513E1;1.300746560E0;-5.660057068E-2;2.476872683E0
1.918020622E1;1.857051730E0;4.118022919E-1;1.565607429E0
1.919851726E1;2.247275829E0;1.193182945E0;3.044508696E-1
1.921682823E1;2.199967384E0;1.911365986E0;-6.661639214E-1
1.923513970E1;1.608984590E0;2.573637962E0;-1.183257818E0
1.925345073E1;1.009487033E0;2.857194901E0;-7.624635696E-1
1.927176329E1;6.559084654E-1;2.870263577E0;-6.059237123E-1
1.929007335E1;5.042737722E-1;2.523989677E0;-5.529925823E-1
1.930838518E1;2.024587393E-1;1.949805737E0;-7.476406097E-1
1.932669078E1;3.367546797E-1;1.165519714E0;-1.322204232E0
1.934499858E1;6.963549256E-1;6.079320908E-1;-2.191358566E0
1.936331774E1;8.105629683E-1;4.260406494E-1;-3.070806980E0
1.938161730E1;1.405219555E0;6.499538422E-1;-3.522714853E0
1.939994029E1;2.640828133E0;5.913600922E-1;-3.412926674E0
1.941824034E1;4.486799240E0;5.040407181E-1;-2.468099117E0
1.943655113E1;6.019948006E0;6.940631866E-1;-1.117246628E0
1.945486260E1;5.805098534E0;4.946660995E-1;-3.866062164E-1
1.947317534E1;4.420679569E0;-9.312028885E-1;-1.519441724E0
1.949148589E1;3.224683762E0;-2.249641418E0;-4.399225235E0
1.950979582E1;3.167293549E0;-3.219955444E0;-5.345084190E0
1.952810686E1;5.398097515E0;-4.605439186E0;-3.489125729E0
1.954641863E1;5.291188240E0;-5.215306282E0;-2.487182140E0
1.956473076E1;1.998362541E0;-4.367684364E0;-2.180360794E0
1.958304094E1;6.584839821E-1;-2.965078354E0;-1.087044001E0
1.960135277E1;-5.566735268E-1;-2.726186752E0;4.963774085E-1
1.961966234E1;-2.939204216E0;-4.199779510E0;3.478206158E0
1.963797362E1;-5.359527111E0;-6.693706512E0;4.985224724E0
1.965628581E1;-6.461499214E0;-8.017101288E0;2.737213850E0
1.967459630E1;-4.500605583E0;-5.509399414E0;-3.352643251E-1
1.969290794E1;-1.954737067E0;-2.484648705E0;-1.370234489E-1
1.971121874E1;-4.436905384E-1;4.596519470E-1;1.826599479E0
1.972952959E1;2.745857239E-1;3.147901058E0;2.649116516E0
1.974784007E1;1.020035744E-1;4.182651520E0;2.648306370E0
1.976615196E1;3.460959196E-1;4.996814251E0;2.661216974E0
1.978446392E1;8.678605556E-1;5.673738480E0;4.369391441E0
1.980278850E1;7.707784176E-1;6.212375641E0;5.370700359E0
1.982109673E1;3.789407015E-1;5.970601559E0;5.338268757E0
1.983940807E1;-4.805501699E-1;4.929116249E0;5.085557461E0
1.985771916E1;-1.563497066E0;4.059338570E0;4.678025246E0
1.987603002E1;-2.119589090E0;3.416071415E0;3.983214855E0
1.989434142E1;-2.189562321E0;2.747416973E0;2.340580463E0
1.991264226E1;-2.271831036E0;1.298169136E0;-1.028890610E0
1.993096373E1;-1.718383312E0;-5.347013474E-1;-4.395899773E0
1.994927483E1;-2.141294479E-1;-3.210161209E0;-6.107330322E0
1.996758141E1;1.506716013E0;-7.014104843E0;-1.049011707E1
1.998589708E1;1.186416149E0;-6.222010612E0;-8.001756668E0
2.000420842E1;1.659514904E-1;-2.839637756E0;-4.832542419E0
2.002251915E1;5.908168554E-1;2.069511890E0;-1.601388454E0
2.004083208E1;-1.429245472E0;1.535309792E0;-1.932639360E0
2.005914171E1;-1.852655411E0;-4.841743469E0;2.646517754E-1
2.007745268E1;9.977155924E-1;-9.635850906E0;8.783967018E0
2.009575939E1;-8.414164782E-1;-8.411871910E0;1.299515533E1
2.011407530E1;-2.733215332E0;-1.395865440E0;6.934397697E0
2.013238628E1;-5.585620880E0;1.422910690E0;2.900024891E0
2.015069762E1;-8.021086693E0;-3.447666168E-1;1.878345728E0
2.016900884E1;-5.581819534E0;-1.061796188E0;1.105125666E0
2.018731993E1;-2.360893250E0;-2.099981308E-1;1.593840837E0
2.020563091E1;-5.910749435E-1;7.285118103E-2;2.309289932E0
2.022393614E1;2.400976181E0;2.124013901E-1;1.897675395E0
2.024225328E1;4.842806816E0;3.678493500E-1;7.089536190E-1
2.026056450E1;5.849861145E0;1.005040169E0;7.455929518E-1
2.027887535E1;4.669940472E0;2.235871792E0;1.935524225E0
2.029718688E1;2.235669136E0;3.655867577E0;2.255505085E0
2.031549785E1;2.426266670E-2;4.282028198E0;-1.031333804E-1
2.033380919E1;-1.472247243E0;3.248133183E0;-3.838259697E0
2.035211925E1;-2.276654720E0;1.453354836E0;-5.124413967E0
2.037043212E1;-2.675712347E0;8.983898163E-2;-4.189301014E0
2.038874254E1;-2.059152365E0;-4.469966888E-2;-2.477478504E0
2.040705382E1;-5.277072191E-1;3.510818481E-1;-1.209265828E0
2.042536486E1;2.230122805E0;5.558052063E-1;-2.128553391E0
2.044367174E1;4.756373882E0;7.406444550E-1;-2.932829380E0
2.046198686E1;6.367911339E0;1.357154846E-1;-1.988670111E0
2.048029845E1;7.066338539E0;8.750534058E-2;-6.347488165E-1
2.049860973E1;6.038787842E0;1.382007599E-1;-1.729750633E-1
2.051692070E1;3.506974459E0;-3.245573044E-1;-7.954878807E-1
2.053523180E1;2.208407402E0;-1.501957893E0;-2.110492706E0
2.055354039E1;2.560677767E0;-2.665363312E0;-2.900239944E0
2.057185564E1;4.178240299E0;-4.790053368E0;-2.572927237E0
2.059016539E1;4.631797791E0;-5.559145927E0;-1.876597047E0
2.060847643E1;3.230871201E0;-4.417574883E0;-1.872319341E0
2.062678771E1;1.274307013E0;-3.034450531E0;-1.653230906E0
2.064508714E1;-5.338959694E-1;-2.020428658E0;-1.261740804E0
2.066341002E1;-2.067038774E0;-2.458046913E0;4.893530905E-1
2.068172222E1;-4.657462597E0;-4.462805748E0;1.753737450E0
2.070003234E1;-7.108324051E0;-5.934240341E0;1.560256243E0
2.071834313E1;-7.143527031E0;-5.024483681E0;7.830305099E-1
2.073665007E1;-5.157084942E0;-2.655845642E0;9.787013531E-1
2.075496562E1;-4.001918793E0;-5.223493576E-1;1.397504926E0
2.077327690E1;-8.145213127E-1;1.200529575E0;2.527534962E-1
2.079158800E1;7.010843754E-1;2.263363361E0;1.466797590E0
2.080989934E1;1.032178402E0;2.519878387E0;1.691355944E0
2.082821337E1;1.440435410E0;3.192047119E0;2.536383152E0
2.084652178E1;1.711210728E0;4.092473507E0;3.685926914E0
2.086482677E1;1.653285503E0;5.032088280E0;4.429427147E0
2.088314391E1;7.531070709E-1;5.164288521E0;4.540677071E0
2.090145470E1;-4.279693365E-1;4.687630653E0;4.702054501E0
2.091975444E1;-1.285689473E0;4.355961323E0;4.796002388E0
2.093807750E1;-1.551025391E0;4.098775864E0;4.435452938E0
2.095638841E1;-1.790278912E0;3.362480640E0;2.685466766E0
2.097469957E1;-1.832091808E0;2.049560547E0;-6.559734344E-1
2.099300963E1;-8.665670156E-1;3.437376022E-1;-4.337152958E0
2.101132097E1;5.591154099E-1;-1.768736839E0;-6.125909805E0
2.102963310E1;5.923724174E-2;-6.259962082E0;-8.211399078E0
2.104794420E1;-9.070982933E-1;-6.708950043E0;-8.029031754E0
2.106625518E1;-1.508002043E0;-3.651099205E0;-5.244393349E0
2.108456658E1;-6.238691807E-1;-6.477918625E-1;-2.930800915E0
2.110287725E1;-1.501852036E0;-4.672888756E0;-4.857822418E0
2.112118907E1;-2.699969053E0;-1.103268623E1;8.026328087E-1
2.113949565E1;-3.357151508E0;-1.261431503E1;1.024669266E1
2.115781090E1;-9.376212358E-1;-3.134593010E0;9.977285385E0
2.117612248E1;-2.188671589E0;4.781266212E0;4.280344486E0
2.119443468E1;-4.048916340E0;6.726492405E0;3.215041399E0
2.121274474E1;-6.285527229E0;3.663890839E0;4.801505089E0
2.123105577E1;-4.378069878E0;8.723964691E-1;3.078019619E0
2.124936675E1;-1.927629948E0;-5.609169006E-1;4.164365768E0
2.126767809E1;1.525812745E0;-1.454586029E0;2.138525009E0
2.128598937E1;5.200616360E0;-2.197810173E0;6.701530814E-1
2.130430046E1;5.154989719E0;-9.507112503E-1;-1.623358130E0
2.132261260E1;4.458339691E0;3.397111893E-1;-3.133715630E0
2.134092266E1;3.619855404E0;2.136811256E0;-2.396259546E0
2.135923369E1;1.521029592E0;3.297378540E0;-3.059197664E-1
2.137754039E1;-6.406607628E-1;3.632882118E0;7.420480251E-1
2.139585625E1;-1.429417253E0;3.507962227E0;5.159440637E-1
2.141416728E1;-1.562114477E0;2.896720409E0;2.952305973E-2
2.143247844E1;-1.259162426E0;1.934061050E0;-4.566819072E-1
2.145079082E1;-1.081887841E0;7.475461960E-1;-1.656283975E0
2.146910094E1;-9.896044731E-1;-1.603269577E-1;-3.214736223E0
2.148741197E1;4.736161828E-1;1.714515686E-1;-4.138703823E0
2.150571837E1;2.287829161E0;3.573751450E-1;-4.372074604E0
2.152403514E1;4.212223053E0;-5.534744263E-2;-4.217921257E0
2.154234532E1;6.081409454E0;-3.495864868E-1;-3.377246618E0
2.156065660E1;6.583120823E0;-4.979486465E-1;-2.070033073E0
2.157896489E1;4.834713936E0;-7.093019485E-1;-1.243644238E0
2.159727867E1;2.525713205E0;-1.316588402E0;-2.959815741E0
2.161558995E1;2.146982908E0;-2.618644714E0;-4.724322319E0
2.163389531E1;4.334198952E0;-4.826610565E0;-3.675343752E0
2.165221251E1;4.675169468E0;-6.264554977E0;-3.264671326E0
2.167052452E1;2.160018444E0;-5.113647461E0;-2.776750803E0
2.168883482E1;2.026727200E0;-3.242037773E0;-1.060922861E0
2.170714586E1;7.302155495E-1;-3.052684784E0;1.376940966E0
2.172545690E1;-1.601405263E0;-4.969624519E0;3.812334538E0
2.174376811E1;-5.347092628E0;-7.986310959E0;4.506108284E0
2.176207830E1;-7.995913506E0;-8.929095268E0;1.921733856E0
2.178039165E1;-6.343397141E0;-5.387146950E0;1.142847300E0
2.179870146E1;-4.164203644E0;-1.823303223E0;1.463198662E0
2.181701280E1;-2.398605585E0;1.130278587E0;9.640381336E-1
2.183532402E1;-1.595315456E0;3.516001701E0;1.981143594E0
2.185363140E1;-1.527375221E0;4.702819347E0;2.372879028E0
2.187194640E1;-9.235081673E-1;4.537193775E0;2.858973742E0
2.189025768E1;1.976017952E-1;4.570860863E0;4.069238186E0
2.190855913E1;8.431777954E-1;5.200121880E0;4.931362152E0
2.192687944E1;1.058453321E0;6.199037075E0;5.452615738E0
2.194519097E1;7.967605591E-1;6.610455036E0;5.434015751E0
2.196350536E1;-5.651125908E-1;6.261349678E0;4.757578850E0
2.198181285E1;-1.197116852E0;5.243033886E0;3.437977552E0
2.200012438E1;-1.395999312E0;4.016461849E0;8.607611656E-1
2.201843566E1;-1.121137381E0;2.130146980E0;-2.733194113E0
2.203674694E1;1.930229187E0;-1.212398529E0;-4.522015572E0
2.205505773E1;2.512986183E0;-8.757634163E0;-9.765563965E0
2.207336919E1;2.350566387E-1;-1.074779129E1;-1.274663258E1
2.209168144E1;-2.488215923E0;-5.466244698E0;-6.307493210E0
2.210999138E1;-1.573158860E0;7.795734406E-1;-1.555441618E0
2.212830260E1;-2.736355782E0;4.797497272E0;6.399700642E-1
2.214660875E1;-4.465492249E0;8.519163132E-1;1.167194843E0
2.216491643E1;-9.653618932E-1;-7.067887306E0;2.562902212E0
2.218323589E1;-4.395874023E0;-1.034525299E1;1.205434036E1
2.220154576E1;-1.755754590E0;-7.083699226E0;6.909101486E0
2.221985820E1;-1.573901415E0;-2.618867874E0;4.064730167E0
2.223816924E1;-2.435538769E0;-1.328873634E0;3.515251875E0
2.225648058E1;-7.575106025E-1;-4.941930771E-1;3.050970554E0
2.227478429E1;1.660455108E0;1.085330963E0;3.144676208E0
2.229310289E1;3.324290752E0;2.669913292E0;2.752655983E0
2.231141435E1;3.935455322E0;3.258710861E0;2.517489433E0
2.232972539E1;4.106272221E0;3.548321724E0;1.857297540E0
2.234803942E1;3.373083353E0;3.448659897E0;8.160579801E-1
2.236634752E1;1.504626393E0;2.701338768E0;-2.128106356E-2
2.238465862E1;-9.715143442E-1;1.847727776E0;-1.924989939E0
2.240296861E1;-3.063149929E0;1.276664734E0;-3.898760557E0
2.242126555E1;-2.825951576E0;1.220223427E0;-3.357551813E0
2.243959215E1;-1.306735873E0;1.243948936E0;-1.822084308E0
2.245790337E1;-2.653701305E-1;9.533300400E-1;-8.999668360E-1
2.247621446E1;3.924209476E-1;8.451185226E-1;-7.074590921E-1
2.249452580E1;1.071889400E0;1.105496407E0;-1.554068089E0
2.251283678E1;1.445789218E0;1.110027313E0;-3.220969915E0
2.253114922E1;2.864438772E0;4.225063324E-1;-4.508375645E0
2.254945909E1;5.937508583E0;-5.193424225E-1;-4.060532570E0
2.256777001E1;8.300633430E0;-1.496603966E0;-2.320009947E0
2.258608141E1;6.808552265E0;-1.894573212E0;-1.138916969E0
2.260439397E1;3.883735657E0;-1.121687889E0;-2.161210537E0
2.262270128E1;2.730696917E0;-1.564574242E0;-3.589845657E0
2.264100402E1;4.832511902E0;-4.378137589E0;-2.928573608E0
2.265931456E1;6.453053474E0;-5.164554596E0;-1.720791936E0
2.267763689E1;4.212705612E0;-3.600644112E0;-9.208149910E-1
2.269594841E1;3.392913342E0;-2.299063683E0;-7.811532021E-1
2.271425963E1;2.156592131E0;-2.535036087E0;3.428417742E-1
2.273257207E1;-8.789402246E-1;-4.599384308E0;3.491272688E0
2.275088170E1;-5.169090271E0;-7.791579247E0;4.846137047E0
2.276919292E1;-8.694721222E0;-9.100587845E0;3.801141024E0
2.278749938E1;-7.183485508E0;-5.886761665E0;1.749673367E0
2.280581529E1;-4.465784073E0;-2.299932480E0;1.371457338E0
2.282412657E1;-1.925662875E0;2.024879456E-1;7.972216606E-2
2.284243639E1;-1.521079540E-1;2.201136589E0;1.570782065E0
2.286074596E1;-1.932454109E-2;3.798818588E0;3.214813948E0
2.287904942E1;1.341406107E-1;4.010848045E0;2.845913649E0
2.289735967E1;2.074223757E-1;3.753649712E0;3.765381813E0
2.291567327E1;4.670820236E-1;3.954944134E0;5.026148796E0
2.293398625E1;1.340378523E-1;4.653330326E0;5.471793175E0
2.295228960E1;-1.068230867E-1;5.320671558E0;5.809291363E0
2.297060430E1;-6.738989353E-1;5.241499901E0;5.867064953E0
2.298892980E1;-1.327025533E0;4.629105568E0;4.790836811E0
2.300723808E1;-1.577465534E0;3.879000664E0;2.649059772E0
2.302554918E1;-1.516784549E0;2.170225143E0;-9.834194183E-1
2.304385460E1;-1.037238121E0;2.794237137E-1;-2.172379732E0
2.306217125E1;-9.439358711E-1;-2.909340858E0;-2.786605835E0
2.308048351E1;8.944449425E-1;-8.276538849E0;-1.077821636E1
2.309879521E1;-1.579816341E0;-8.206109047E0;-1.221667576E1
2.311710362E1;-2.123757601E0;-2.795436859E0;-7.078506470E0
2.313541637E1;2.723126411E-1;3.250038147E0;-1.862996817E0
2.315372734E1;1.974506378E-1;5.274991512E0;8.885543346E-1
2.317203984E1;-8.955883980E-1;1.688682079E0;2.171136379E0
2.319034990E1;3.458566189E0;-6.447593689E0;2.430369377E0
2.320866100E1;-1.498776436E0;-1.120304012E1;1.529658127E1
2.322697203E1;-4.100876808E0;-8.723369598E0;9.233314514E0
2.324528301E1;-1.337244272E0;-2.865745544E0;-3.669042587E-1
2.326359068E1;-3.183753014E0;-5.702352524E-1;-1.695378780E0
2.328190532E1;-3.776297569E0;2.781639099E-1;6.570640802E-1
2.330020238E1;-2.064121723E0;1.654482365E0;1.290265203E0
2.331851695E1;-7.310928106E-1;2.630611420E0;2.729400158E0
2.333682805E1;1.079078674E0;2.898292065E0;3.248498917E0
2.335513970E1;2.710091591E0;2.266201019E0;2.079390049E0
2.337344988E1;3.569952965E0;1.385293961E0;1.160966396E0
2.339176091E1;3.022986174E0;8.802318573E-1;4.915378392E-1
2.341007237E1;1.085594654E0;1.598336220E0;-3.181865513E-1
2.342838439E1;-9.565296769E-1;2.569101334E0;-1.719478488E0
2.344669463E1;-1.201030850E0;2.852334023E0;-2.919972658E0
2.346500487E1;-1.042990685E0;1.923429489E0;-2.676730156E0
2.348331609E1;-1.042463779E0;9.568290710E-1;-2.287412643E0
2.350162792E1;-7.508476973E-1;7.032003403E-1;-2.496567726E0
2.351993962E1;4.057189226E-1;8.006010056E-1;-3.181612968E0
2.353825029E1;2.293605566E0;5.203390121E-1;-3.919326782E0
2.355657128E1;4.902193069E0;2.125129700E-1;-4.247265816E0
2.357488408E1;6.622909069E0;2.126111984E-1;-3.336803436E0
2.359319518E1;6.123457909E0;1.093225479E-1;-2.485417604E0
2.361150530E1;3.217098236E0;-4.094123840E-1;-2.354103804E0
2.362981749E1;5.741412640E-1;-1.234399796E0;-3.693215609E0
2.364812871E1;-3.572376370E-1;-1.566275597E0;-4.206627846E0
2.366644011E1;1.725631833E0;-2.577669144E0;-3.175328970E0
2.368474529E1;3.671274662E0;-3.627827644E0;-2.483317137E0
2.370305919E1;3.635210276E0;-2.682427406E0;-1.961467862E0
2.372137236E1;3.664147377E0;-1.079917908E0;-1.202651024E0
2.373968437E1;3.145074368E0;-1.068821907E0;1.814108491E-1
2.375799547E1;2.606103420E-1;-2.376115799E0;3.474433899E0
2.377630699E1;-3.470119476E0;-4.807178497E0;5.603376865E0
2.379461797E1;-7.562572479E0;-8.238893509E0;4.432053089E0
2.381293028E1;-8.050714493E0;-9.761395454E0;-7.342147827E-1
2.383123949E1;-4.298604965E0;-6.042685509E0;-3.090951443E-1
2.384955162E1;-1.897140384E0;-8.991060257E-1;1.323202372E0
2.386786260E1;-1.669100881E0;2.505614281E0;3.127670288E0
2.388617394E1;-1.752733946E0;4.209135532E0;2.884421825E0
2.390448497E1;-9.087718725E-1;4.892647266E0;2.679674625E0
2.392279619E1;2.205967903E-1;5.385836124E0;4.023430347E0
2.394110826E1;5.154259205E-1;6.191570282E0;5.295798302E0
2.395941857E1;4.263391495E-1;6.920786858E0;5.869981289E0
2.397772954E1;-1.380820274E-1;7.229080200E0;5.650755882E0
2.399604070E1;-1.118450046E0;7.119164467E0;5.244491100E0
2.401435314E1;-1.782204986E0;6.796221256E0;4.421530247E0
2.403266295E1;-1.673972726E0;6.189279079E0;2.372980833E0
2.405097454E1;-1.504196644E0;5.329008579E0;-1.211537838E0
2.406928557E1;-7.038156986E-1;3.841764450E0;-5.948740959E0
2.408759654E1;1.938783884E0;-4.880275726E-1;-1.050495434E1
2.410590782E1;2.203725100E0;-8.451286316E0;-1.384164619E1
2.412421306E1;-2.823340416E0;-9.360581398E0;-5.841277122E0
2.414252593E1;-4.397438049E0;-3.804864883E0;-2.300156116E0
2.416084117E1;-3.598173618E0;-2.864494324E-1;-2.335782051E0
2.417915215E1;-2.248607159E0;2.766315937E0;-8.541787148E0
2.419745860E1;-2.577712059E0;2.007570267E-1;-9.336828232E0
2.421577483E1;-2.353331804E0;-1.264792538E1;-1.331962824E0
2.423408592E1;-5.905801773E0;-2.014258575E1;1.619213867E1
2.425239592E1;-1.312872887E0;-1.517923069E1;1.212609863E1
2.427070836E1;1.192059517E-1;-2.803122520E0;6.594015121E0
2.428901940E1;-1.467382312E0;1.779147148E0;5.300584793E0
2.430733043E1;-2.554867744E0;1.344440460E0;5.891874790E0
2.432563689E1;-1.741832733E0;4.176921844E-1;7.022823334E0
2.434395299E1;3.104138851E0;-3.972911835E-2;5.993654251E0
2.436226402E1;6.608022690E0;-1.651992798E-1;1.457252979E0
2.438057506E1;6.543400288E0;1.046409607E-1;-4.565129280E-1
2.439888610E1;6.012520790E0;5.846004486E-1;-2.943712234E0
2.441719762E1;5.015254974E0;1.523216248E0;-5.290057182E0
2.443550859E1;3.587060452E0;2.801963806E0;-3.440164804E0
2.445382085E1;1.377952337E0;4.273993015E0;-1.563730478E0
2.447213097E1;-1.125572324E0;5.337950706E0;-4.558831155E-1
2.449044310E1;-2.654181480E0;5.660787106E0;6.694966555E-2
2.450875359E1;-3.763745308E0;5.170375824E0;8.967717886E-1
2.452706450E1;-5.347639084E0;3.204070568E0;1.260038376E0
2.454537560E1;-7.599923134E0;-6.960535049E-1;-3.765448570E0
2.456368297E1;-4.600171089E0;-3.319972992E0;-1.127977943E1
2.458199883E1;4.182501316E0;-2.660944939E0;-8.151823997E0
2.460030919E1;1.007685947E1;-2.271572113E0;-2.864772320E0
2.461862023E1;1.174865150E1;-1.919342995E0;-4.627307653E-1
2.463693144E1;1.006558609E1;-1.087775230E0;-2.584434748E0
2.465524254E1;7.071972370E0;5.151891708E-1;-6.387286663E0
2.467355016E1;6.153521061E0;-5.601539612E-1;-4.031867981E0
2.469186943E1;8.166824341E0;-2.356011391E0;-1.062570214E0
2.471017644E1;6.763277054E0;-2.762582779E0;2.995475531E-1
2.472848741E1;4.756120205E0;-4.327284813E0;2.273452282E0
2.474679869E1;2.482867241E0;-7.914417267E0;5.143413544E0
2.476510375E1;-2.352299929E0;-1.379995155E1;6.157370090E0
2.478342076E1;-1.039506340E1;-1.991012955E1;-1.353760600E0
2.480173174E1;-1.151540089E1;-1.456182194E1;-1.707931876E0
2.482004332E1;-7.206630230E0;-6.154383659E0;5.342981815E-1
2.483835436E1;-4.368117332E0;-8.467168808E-1;1.308819890E0
2.485666539E1;-2.860271931E0;1.304851532E0;1.623206377E0
2.487497661E1;-2.244741678E0;1.976624489E0;2.800275326E0
2.489328649E1;-1.470179081E0;2.727626801E0;3.155729294E0
2.491159874E1;-2.159705162E-1;3.367695332E0;4.303141594E0
2.492991002E1;4.610698223E-1;4.063276768E0;5.448398113E0
2.494822228E1;3.421680927E-1;5.677880764E0;6.126018524E0
2.496652086E1;-2.690430880E-1;7.431827545E0;6.437681198E0
2.498483190E1;-9.025144577E-1;8.651122093E0;6.723188400E0
2.500315459E1;-1.799538136E0;8.943497658E0;6.654210091E0
2.502145110E1;-2.878572702E0;7.882526875E0;5.598618984E0
2.503976573E1;-2.790308952E0;6.084899902E0;3.274563074E0
2.505810143E1;-1.879567981E0;4.321564198E0;1.743297577E-1
2.507640239E1;-1.057416916E0;2.161221504E0;-5.443522930E0
2.509471056E1;-1.082939386E0;-3.151184082E0;-7.558105469E0
2.511302159E1;-1.526012421E-1;-1.052462292E1;-5.446385860E0
2.513133196E1;-1.030743241E0;-8.483478546E0;-1.110411167E0
2.514964421E1;-2.724167824E0;-3.095531464E0;-3.615201950E0
2.516795519E1;-2.293689728E0;-3.417148590E-1;-6.973717690E0
2.518626640E1;-4.092312336E0;-5.204513550E0;-9.022817612E0
2.520457787E1;5.137695074E-1;-1.373837757E1;-1.163624763E0
2.522288970E1;-2.414157152E0;-1.438527966E1;1.397617912E1
2.524120006E1;1.243646145E-1;-4.252731323E0;9.551250458E0
2.525951103E1;5.045627356E-1;3.059824467E0;3.641824961E0
2.527782213E1;-1.801758528E0;4.852463722E0;4.002309799E0
2.529613335E1;-2.954404354E0;3.008182049E0;4.186161518E0
2.531444469E1;-2.354166508E0;1.587281227E0;6.287523270E0
2.533275572E1;-1.192095637E0;6.273756027E-1;6.611184597E0
2.535106822E1;1.283766031E0;-1.850748062E-1;4.906598568E0
2.536937804E1;4.181680679E0;-9.533939362E-1;2.434355259E0
2.538768926E1;5.110171795E0;-1.117949486E0;1.750702858E-1
2.540599565E1;3.684840679E0;3.521871567E-1;-4.627739429E0
2.542431169E1;3.680718899E0;2.135331631E0;-5.971393585E0
2.544262291E1;3.029066324E0;3.056064606E0;-3.792524576E0
2.546093389E1;1.492652178E0;3.217090130E0;-1.795194387E0
2.547924474E1;-2.327926457E-1;2.895730495E0;-9.392827749E-1
2.549755620E1;-9.341241717E-1;2.106709003E0;-9.031361341E-1
2.551586724E1;-6.200027466E-1;1.581563950E0;-5.390331149E-1
2.553417253E1;4.181760550E-1;1.464592934E0;-8.165913820E-2
2.555248955E1;1.277409792E0;1.480281830E0;2.674777508E-1
2.557080089E1;2.030268431E0;1.370851517E0;1.063786745E-1
2.558911223E1;2.918070078E0;1.033385277E0;-1.560988188E0
2.560741857E1;1.130523443E0;-5.100574493E-1;-6.740239143E0
2.562573448E1;-2.168731093E-1;-2.266066551E0;-9.484493256E0
2.564404943E1;2.508199930E0;-2.604372978E0;-6.937554359E0
2.566235533E1;5.714690208E0;-3.344806671E0;-3.672907591E0
2.568066783E1;6.104634762E0;-3.406945229E0;-1.945671558E0
2.569897856E1;4.522061825E0;-2.085501671E0;-1.969198942E0
2.571728997E1;5.188060760E0;-1.917731285E0;-2.506809235E0
2.573560143E1;6.411619663E0;-3.281125069E0;-1.990860343E0
2.575391271E1;5.269645691E0;-2.300829887E0;2.081716061E-2
2.577222667E1;3.751626492E0;-2.099133492E0;2.421936274E0
2.579053582E1;1.927626729E0;-3.392738342E0;3.509088755E0
2.580884606E1;-1.030673146E0;-7.225564003E0;3.640573978E0
2.582715758E1;-5.173927784E0;-1.333249092E1;-1.091253638E0
2.584546843E1;-1.021830177E1;-1.504181767E1;-1.136245370E0
2.586378081E1;-9.761264801E0;-8.566720009E0;7.538511157E-1
2.588209068E1;-6.968042374E0;-2.228677750E0;2.252048016E0
2.590040251E1;-5.434674740E0;3.767788410E0;1.608667970E0
2.591871300E1;-4.643969536E0;6.910911083E0;1.516417265E0
2.593702428E1;-2.053832054E0;6.514735222E0;2.773156166E0
2.595533531E1;1.216621399E-1;4.627776623E0;4.215503216E0
2.597364287E1;1.144800186E0;3.572868347E0;5.190875053E0
2.599195879E1;1.157790184E0;4.282840729E0;5.508650303E0
2.601026915E1;1.305948257E0;5.882176876E0;5.125403881E0
2.602858312E1;1.593587637E0;6.406839371E0;4.211961269E0
2.604688658E1;-5.696430206E-1;5.639919281E0;4.616466999E0
2.606518828E1;-1.533527493E0;4.597118378E0;4.029291153E0
2.608351317E1;-1.339224100E0;4.104931831E0;2.360179424E0
2.610181255E1;-1.048826933E0;3.153068542E0;-1.160805702E0
2.612013585E1;6.127223969E-1;1.542183399E0;-6.205354691E0
2.613844719E1;2.968578815E0;1.129786491E0;-6.374677181E0
2.615674791E1;1.045100689E0;-3.329534531E0;-7.350898266E0
2.617505821E1;-2.755616903E0;-7.123332024E0;-5.422755241E0
2.619338066E1;-2.586497307E0;-2.809979439E0;-3.368229866E0
2.621169176E1;-2.425156116E0;3.747161865E0;-4.703445435E-1
2.623000279E1;-3.593486547E0;6.987715721E0;3.419808149E0
2.624831432E1;-2.888263226E0;2.949756145E0;-6.253013611E0
2.626662535E1;-1.294948101E1;-1.669245338E1;9.154045105E0
2.628494951E1;-1.374618435E1;-3.291464615E1;1.657063866E1
2.630324620E1;3.060031891E0;-1.245957184E1;2.763831377E0
2.632155870E1;3.488101959E0;-1.131391525E-1;2.508477688E0
2.633986705E1;1.247755647E0;4.582599163E0;2.993601799E0
2.635818352E1;2.502096891E-1;5.830703735E0;3.575854778E0
2.637648381E1;-4.501886666E-1;5.128897190E0;5.979660511E0
2.639480126E1;4.633814096E-2;3.639665604E0;5.506225586E0
2.641311461E1;3.266887903E0;2.449385643E0;3.370643377E0
2.643142467E1;7.103710175E0;1.604162216E0;-5.597361922E-1
2.644973693E1;6.444547653E0;1.366520882E0;-3.824929953E0
2.646804692E1;3.133843184E0;2.445116043E0;-4.924871445E0
2.648634899E1;1.912458420E0;3.231025219E0;-3.481684208E0
2.650465959E1;1.532557845E0;2.354125500E0;-1.253156424E0
2.652296996E1;3.022027612E-1;6.664705276E-1;9.816509485E-2
2.654128307E1;-4.680462480E-1;-6.099958420E-1;-2.262198925E-2
2.655959300E1;-1.152486801E0;-9.413175583E-1;-3.625866413E0
2.657790398E1;-2.540483475E0;-1.193364143E0;-8.525025368E0
2.659622484E1;-2.937929332E-1;-9.151277542E-1;-8.434066772E0
2.661453746E1;3.869150639E0;-1.353062630E0;-5.264630795E0
2.663284990E1;7.299143791E0;-1.745815277E0;-2.161453009E0
2.665116008E1;7.902801991E0;-1.129916191E0;-1.203741431E0
2.666947118E1;4.498589039E0;1.063117981E-1;-3.492739439E0
2.668778209E1;2.461693048E0;5.100469589E-1;-5.558961868E0
2.670609337E1;2.948332310E0;-4.680118561E-1;-3.755635738E0
2.672440471E1;5.233140945E0;-2.052203178E0;-1.356353641E0
2.674271477E1;5.735305309E0;-3.624946594E0;6.232494116E-2
2.676102812E1;4.795377731E0;-3.636687279E0;2.122897387E0
2.677933800E1;3.255082130E0;-4.323069572E0;3.189632416E0
2.679764910E1;2.968906760E-1;-5.610942841E0;4.778538704E0
2.681595574E1;-2.580857277E0;-9.059688568E0;6.029938221E0
2.683427165E1;-7.319460869E0;-1.392789555E1;8.227785826E-1
2.685258287E1;-9.858060837E0;-1.172467136E1;-2.285557270E0
2.687089391E1;-6.308227539E0;-4.797904015E0;-3.399171829E-1
2.688920500E1;-4.333777428E0;-2.967271805E-1;2.067271709E0
2.690751616E1;-2.522440910E0;2.678380966E0;2.698930740E0
2.692582750E1;-1.202078104E0;4.462925911E0;4.506174564E0
2.694413274E1;6.467927694E-1;5.603135586E0;4.998250961E0
2.696243822E1;8.489770889E-1;5.218001842E0;5.398652077E0
2.698076085E1;4.061461687E-1;4.782389641E0;5.445703506E0
2.699907189E1;8.466080427E-1;5.178375721E0;5.146756172E0
2.701738341E1;7.358945608E-1;6.112877846E0;5.690031052E0
2.703568303E1;-3.787289858E-1;6.556217670E0;6.087066650E0
2.705399187E1;-1.987165809E0;6.098880291E0;5.711417198E0
2.707230535E1;-1.769880056E0;4.973943710E0;3.543642044E0
2.709061937E1;-1.466884375E0;3.576447010E0;-5.482292175E-2
2.710892803E1;-7.399427891E-1;2.420025826E0;-3.592764854E0
2.712723986E1;6.690567732E-1;-7.489862442E-1;-5.855531216E0
2.714555077E1;-9.602820873E-1;-7.348832130E0;-7.280735016E0
2.716386290E1;-1.125936031E0;-9.194284439E0;-6.049933434E0
2.718217198E1;-7.442431450E-1;-4.103113174E0;-5.040316105E0
2.720048375E1;3.495599031E-1;1.366607666E0;-2.234125376E0
2.721879473E1;-4.132568836E-2;5.855340004E0;1.731675386E0
2.723710527E1;-1.921592474E0;3.378214836E0;1.522047520E0
2.725541783E1;-4.403744936E-1;-7.127544403E0;6.063859463E0
2.727372930E1;-7.237602234E0;-1.736506653E1;1.591495037E1
2.729204009E1;-3.891683817E0;-1.512186337E1;5.289692879E0
2.731035240E1;1.884816885E0;-3.243025780E0;-5.285334587E0
2.732867369E1;-2.024472475E0;1.125655174E0;-1.078289270E0
2.734698448E1;-4.112679482E0;1.697229385E0;3.587970734E0
2.736529546E1;-2.415313244E0;2.915610313E0;4.596981525E0
2.738360295E1;-2.128247619E-1;3.529941082E0;5.271759033E0
2.740191899E1;1.691808701E0;3.508443832E0;4.299753189E0
2.742022905E1;3.318852663E0;2.877203465E0;2.750716209E0
2.743854039E1;4.799521446E0;1.921785355E0;8.412439823E-1
2.745683678E1;3.694777727E0;1.630033493E0;-3.107547283E0
2.747516258E1;2.069255114E0;2.383718491E0;-5.018114567E0
2.749347368E1;7.869683504E-1;3.125145435E0;-4.170123100E0
2.751178527E1;4.572662711E-1;2.869000435E0;-2.380431652E0
2.753009630E1;8.900246024E-2;1.796065331E0;-1.044498086E0
2.754840740E1;-1.449452519E0;9.303941727E-1;-1.920654535E0
2.756671861E1;-2.300897360E0;5.228242874E-1;-3.503541946E0
2.758501647E1;-1.499557018E0;8.677206039E-1;-3.594908714E0
2.760334062E1;4.559319466E-2;1.195953369E0;-2.706105709E0
2.762165172E1;2.258920670E0;7.181787491E-1;-2.380832195E0
2.763996355E1;4.523726463E0;-4.565191269E-1;-2.389405966E0
2.765827428E1;6.434786797E0;-1.166401863E0;-2.415362358E0
2.767658556E1;6.416600704E0;-1.587973595E0;-2.180554152E0
2.769489659E1;3.979608059E0;-1.996331215E0;-2.583237648E0
2.771320665E1;2.399605036E0;-2.166257858E0;-3.564115524E0
2.773151915E1;3.765161514E0;-3.278800964E0;-3.063911676E0
2.774983019E1;6.631501675E0;-5.352186203E0;-2.093870401E0
2.776814140E1;6.714552402E0;-5.125794411E0;-9.860490561E-1
2.778645268E1;4.852535248E0;-3.237958908E0;1.604624987E-1
2.780476396E1;3.397249222E0;-2.623910904E0;-2.937972546E-3
2.782307457E1;8.350712061E-1;-4.098719597E0;5.627588034E-1
2.784138494E1;-3.704733610E0;-8.420899391E0;3.062357664E0
2.785969414E1;-9.819995880E0;-1.294096470E1;2.508205652E0
2.787800816E1;-1.174900913E1;-1.056462193E1;1.522006392E0
2.789631951E1;-7.681522369E0;-4.619454384E0;1.063340187E0
2.791463097E1;-4.519466877E0;-4.601564407E-1;1.297068596E0
2.793294206E1;-3.174489498E0;2.093806267E0;1.593043804E0
2.795125212E1;-1.818432570E0;3.840410233E0;3.078572750E0
2.796956426E1;-3.376799822E-2;5.165527344E0;3.512983799E0
2.798787541E1;9.096478224E-1;5.063475609E0;3.784714222E0
2.800618669E1;9.678788185E-1;4.249851227E0;4.201008320E0
2.802449791E1;7.030591965E-1;4.240379333E0;4.650476456E0
2.804281005E1;8.076076508E-1;5.154376984E0;4.794850826E0
2.806111412E1;7.382333279E-1;6.333340645E0;5.135171890E0
2.807943126E1;-2.497317791E-1;6.675877571E0;5.438680649E0
2.809774260E1;-1.167047262E0;6.007099152E0;5.240042210E0
2.811605376E1;-1.080846667E0;5.210770607E0;3.541568279E0
2.813436455E1;-1.010966539E0;4.357705116E0;-2.136778831E-1
2.815267583E1;-6.657456160E-1;3.041197300E0;-4.963994980E0
2.817098857E1;9.613883495E-1;3.773498535E-1;-8.462940216E0
2.818929845E1;-1.325697303E0;-7.504459381E0;-8.461610794E0
2.820760948E1;-3.199926138E0;-1.024834156E1;-5.666293144E0
2.822591588E1;-2.632670641E0;-4.801102638E0;-3.846188068E0
2.824423186E1;-2.245933533E0;-1.730628967E0;-3.706008434E0
2.826254283E1;-5.626360416E0;-8.708932877E0;-4.879172802E0
2.828085417E1;-6.383378983E0;-1.412613201E1;3.267114401E0
2.829916558E1;-3.466704845E0;-1.146196842E1;1.162528038E1
2.831747624E1;1.195654869E-1;-1.872711182E0;7.368000984E0
2.833578795E1;1.057098508E-1;4.054525375E0;4.275399208E0
2.835409294E1;-2.613865376E0;3.650417328E0;6.681874275E0
2.837241027E1;-2.674136162E0;1.604014397E0;6.267638206E0
2.839072106E1;-1.407802105E0;9.072828293E-1;6.890164852E0
2.840903258E1;-4.983794689E-2;5.164117813E-1;6.598493576E0
2.842734361E1;2.992786884E0;-9.498310089E-2;4.611183167E0
2.844565465E1;5.819001198E0;-3.846063614E-1;1.201350927E0
2.846396593E1;5.027221680E0;-1.320695877E-1;-1.998074889E0
2.848227599E1;4.085849762E0;1.329409599E0;-5.763735294E0
2.850058824E1;3.831662655E0;2.666455269E0;-5.987887383E0
2.851889922E1;2.599312305E0;3.106310844E0;-3.374693871E0
2.853721080E1;8.050768375E-1;2.551831722E0;-1.273965120E0
2.855552178E1;-3.840239942E-1;1.967775345E0;-5.213252902E-1
2.857383287E1;-1.406712532E0;1.351860046E0;-8.296047449E-1
2.859214415E1;-2.074857712E0;1.022978783E0;-2.281023741E0
2.861045629E1;-1.553686023E0;7.639379501E-1;-3.674129248E0
2.862876671E1;2.674736381E-1;6.105985641E-1;-3.890436411E0
2.864707774E1;3.130550861E0;5.691728592E-1;-3.142608881E0
2.866538878E1;5.792458057E0;-4.447937012E-2;-2.422761917E0
2.868370275E1;7.790901661E0;-4.568262100E-1;-1.902920246E0
2.870201110E1;8.068064690E0;1.655292511E-2;-1.656419039E0
2.872032237E1;5.503436089E0;7.644062042E-1;-1.656067491E0
2.873863372E1;2.203320980E0;2.912425995E-2;-2.195013046E0
2.875694487E1;6.690612435E-1;-1.441667557E0;-3.922254086E0
2.877525597E1;1.182740688E0;-3.203719139E0;-4.092175484E0
2.879356352E1;4.094635010E0;-5.441300392E0;-3.387135029E0
2.881188127E1;6.397703171E0;-5.902874947E0;-2.266392708E0
2.883018950E1;5.357289791E0;-4.327307701E0;-8.683717847E-1
2.884850060E1;5.105781555E0;-2.664570808E0;-4.434671402E-1
2.886680730E1;3.264131308E0;-2.470353127E0;5.501650572E-1
2.888512297E1;-7.893849015E-1;-4.630092621E0;3.544153690E0
2.890343437E1;-5.360811710E0;-8.348159790E0;5.528099060E0
2.892174407E1;-1.103845978E1;-1.128490162E1;2.353244781E0
2.894005650E1;-1.081459045E1;-8.571858406E0;8.036804199E-2
2.895835619E1;-5.788837910E0;-3.343040466E0;4.697986841E-1
2.897667882E1;-2.971680641E0;3.302249908E-1;5.802962780E-1
2.899498393E1;-1.953269005E0;2.251588345E0;2.706275225E0
2.901330113E1;-3.513576090E-1;3.941401482E0;4.395392418E0
2.903160076E1;9.213018417E-1;5.017848969E0;4.168655396E0
2.904992339E1;1.029533386E0;5.256018162E0;4.567409039E0
2.906823766E1;8.764912486E-1;5.130444527E0;5.329097271E0
2.908654607E1;8.519158363E-1;5.328533173E0;5.725749969E0
2.910485704E1;1.165890217E0;5.828810215E0;6.263710976E0
2.912316716E1;6.642355323E-1;6.280672550E0;6.753485680E0
2.914147905E1;-8.431707621E-1;6.082305431E0;6.082762241E0
2.915979070E1;-1.907090664E0;4.948974609E0;4.261849880E0
2.917810192E1;-2.492289543E0;3.584981441E0;1.064768314E0
2.919641289E1;-2.369495630E0;1.448108673E0;-3.244289398E0
2.921472423E1;-1.541131139E-1;-2.153537750E0;-9.028168678E0
2.923303526E1;-2.578912258E0;-1.000887394E1;-9.790482521E0
2.925134679E1;-3.122818708E0;-9.215723991E0;-5.932119370E0
2.926965758E1;-2.495957613E0;-2.206341743E0;-5.241583347E0
2.928795702E1;-1.434764385E0;7.388658524E-1;-6.449947357E0
2.930626726E1;-3.085867643E0;-5.817194939E0;-6.682384491E0
2.932458013E1;-1.537817240E0;-1.260605049E1;5.039615631E0
2.934289934E1;-1.338243365E0;-1.232195187E1;1.556274509E1
2.936121453E1;8.705373406E-1;-3.321332932E0;7.310570240E0
2.937952471E1;5.985683799E-1;3.409694672E0;2.614831686E0
2.939783556E1;-1.840851307E0;4.451972008E0;4.504634857E0
2.941614702E1;-3.178416729E0;2.718730450E0;4.546067238E0
2.943445812E1;-1.859131813E0;1.241265297E0;5.767871857E0
2.945277056E1;-2.395639867E-1;-2.106895447E-1;6.541684151E0
2.947108043E1;2.954613686E0;-1.232588768E0;4.395135880E0
2.948939171E1;5.651569843E0;-1.042346001E0;1.412067652E0
2.950770293E1;4.589179516E0;2.937793732E-2;-2.095008612E0
2.952601403E1;2.237301826E0;1.683562279E0;-5.503168106E0
2.954432530E1;1.385427475E0;2.872223377E0;-5.345457077E0
2.956263292E1;8.816227913E-1;3.327528000E0;-3.352827072E0
2.958094756E1;-1.574594527E-1;2.881616592E0;-1.967731833E0
2.959925865E1;-9.625736475E-1;1.979919434E0;-1.352346897E0
2.961756993E1;-1.069114208E0;1.229488373E0;-1.535669565E0
2.963587663E1;9.306724370E-2;8.831949234E-1;-1.785692692E0
2.965418132E1;1.911019921E0;1.076372147E0;-1.502355099E0
2.967249504E1;3.021379709E0;1.527362823E0;-1.025675774E0
2.969080638E1;4.004684925E0;1.679093361E0;-1.675195932E0
2.970912993E1;4.914165497E0;1.337988853E0;-3.510273457E0
2.972743706E1;5.269977570E0;-7.396316528E-2;-3.800130606E0
2.974574816E1;5.777969360E0;-1.577280998E0;-2.464591742E0
2.976405559E1;4.972122192E0;-2.141192436E0;-2.006830215E0
2.978237041E1;3.464517355E0;-2.071688652E0;-2.736874104E0
2.980068175E1;3.654124737E0;-2.289951324E0;-2.716341972E0
2.981898900E1;4.831088066E0;-4.330841064E0;-2.143810749E0
2.983730406E1;5.538535595E0;-5.271321297E0;-1.972018123E0
2.985561540E1;3.767908573E0;-4.256874084E0;-1.923959732E0
2.987392626E1;2.511678219E0;-3.077795029E0;-9.253945351E-1
2.989223888E1;1.579454184E0;-2.814428329E0;-1.532205194E-1
2.991054998E1;-4.946711659E-1;-4.514651299E0;2.689674616E0
2.992885997E1;-4.715117455E0;-8.847396851E0;2.735400200E0
2.994717125E1;-9.487272263E0;-1.254252911E1;1.151296139E0
2.996548223E1;-9.454277039E0;-9.584852219E0;6.647242308E-1
2.998379357E1;-6.393608093E0;-4.014758110E0;1.840664744E0
3.000210478E1;-4.022242546E0;-1.510658264E-1;1.899042368E0
3.002041674E1;-2.493691206E0;2.007541656E0;1.613087177E0
3.003872661E1;-1.224768877E0;3.899083138E0;3.051158905E0
3.005703844E1;6.538425684E-1;5.520407200E0;3.285312891E0
3.007534917E1;1.209566593E0;6.045053959E0;3.706169605E0
3.009365050E1;1.031443357E0;5.787770271E0;4.752020359E0
3.011196190E1;9.915809631E-1;5.643960953E0;5.409062862E0
3.013027263E1;9.935599566E-1;6.140035629E0;5.830101013E0
3.014858428E1;9.608748555E-1;6.886430740E0;6.409754753E0
3.016689379E1;3.487676382E-2;6.991184235E0;6.099411011E0
3.018520482E1;-1.290928721E0;5.819920540E0;4.650679111E0
3.020352568E1;-1.983939171E0;4.205957413E0;2.221399307E0
3.022183843E1;-2.388212681E0;1.936082840E0;-1.520214081E0
3.024015001E1;-4.302591085E-1;-9.841575623E-1;-4.038094997E0
3.025846135E1;-1.179874063E0;-8.479630470E0;-7.795181274E0
3.027676769E1;-2.447408438E0;-1.233449554E1;-1.075258541E1
3.029508367E1;-1.811682105E0;-5.193021774E0;-6.148486137E0
3.031339458E1;-1.059664249E0;8.895268440E-1;-3.326930523E0
3.033170470E1;-9.301267862E-1;4.659116268E0;-9.990758896E-1
3.035001702E1;-2.682489395E0;3.292346001E0;-9.609708786E-1
3.036832866E1;-2.696535587E0;-4.785145760E0;-2.522447586E0
3.038663951E1;-4.513657093E0;-1.264548016E1;1.018167496E1
3.040494090E1;-4.071425438E0;-1.219970608E1;1.185150623E1
3.042326158E1;-9.026374817E-1;-3.783269882E0;4.092914581E0
3.044157286E1;4.767102003E-2;2.330810547E0;-7.087016106E-2
3.045988402E1;-3.642805576E0;2.560181141E0;2.338231564E0
3.047819518E1;-4.565577030E0;6.244211197E-1;3.320038080E0
3.049650646E1;-1.929492474E0;3.347053528E-1;4.205288887E0
3.051481694E1;-2.441531420E-2;5.963401794E-1;3.851200581E0
3.053313018E1;1.749513626E0;1.624689102E-1;3.066379786E0
3.055143987E1;2.946308613E0;-2.055177689E-1;2.178725719E0
3.056975109E1;3.274663448E0;-3.359498978E-1;1.292772770E0
3.058806236E1;2.950191498E0;3.644599915E-1;-1.526818871E-1
3.060637358E1;2.104798794E0;1.912960052E0;-1.905570745E0
3.062468468E1;9.160023928E-1;3.246077538E0;-2.910318613E0
3.064299614E1;-4.273412228E-1;3.719845295E0;-2.877475977E0
3.066130272E1;-1.152117729E0;3.695834637E0;-2.786286116E0
3.067961827E1;-1.559017181E0;2.820698738E0;-2.719692469E0
3.069792931E1;-1.300169110E0;1.823588371E0;-1.661883116E0
3.071624059E1;-9.320690632E-1;1.472998619E0;-4.999058247E-1
3.073455309E1;-6.121701002E-1;1.186079025E0;-9.871560335E-1
3.075286315E1;-3.300085068E-1;-2.086763382E-1;-5.096185684E0
3.077116380E1;4.467431068E0;-5.231018066E-1;-7.346113205E0
3.078947460E1;7.915136814E0;-5.169973373E-1;-4.417367935E0
3.080778606E1;9.148562431E0;-1.342664719E0;-1.340439796E0
3.082609642E1;7.298837662E0;-1.786992073E0;2.366181612E-1
3.084440819E1;4.097353458E0;-1.236628532E0;-1.177234888E0
3.086271800E1;1.619997263E0;-1.816411018E0;-4.211343765E0
3.088102562E1;2.356169224E0;-4.456741333E0;-4.823612213E0
3.089934130E1;4.654694557E0;-6.905888557E0;-3.448213577E0
3.091765178E1;3.351748228E0;-6.558853149E0;-1.420324206E0
3.093596367E1;2.424257755E0;-4.525285721E0;6.589148045E-1
3.095427507E1;4.955934286E-1;-3.428442001E0;1.094931364E0
3.097258733E1;-3.144886017E0;-5.075379372E0;2.256117344E0
3.099089708E1;-7.936079979E0;-9.058416367E0;2.062305212E0
3.100920854E1;-1.103695869E1;-1.084975815E1;1.446213961E0
3.102752214E1;-8.127843857E0;-6.088244438E0;4.581133127E-1
3.104583708E1;-4.470875740E0;-2.439425468E0;7.695487738E-1
3.106415294E1;-2.883777857E0;-6.643381119E-1;1.782533169E0
3.108246416E1;-1.863549829E0;7.669858932E-1;2.741625071E0
3.110077550E1;-2.095218301E-1;2.645177841E0;3.624267578E0
3.111908647E1;7.025878429E-1;4.498964787E0;3.620302677E0
3.113739781E1;9.386178255E-1;5.280581474E0;4.003475189E0
3.115570885E1;9.452079535E-1;5.032479286E0;4.541459084E0
3.117402129E1;1.220510960E0;5.427104473E0;5.010514736E0
3.119233116E1;1.041127324E0;6.417817593E0;5.656909466E0
3.121064238E1;-6.699931622E-2;7.105171204E0;6.020186901E0
3.122895348E1;-1.135351300E0;6.650501251E0;5.736138821E0
3.124726470E1;-1.351696491E0;5.696951389E0;4.733015537E0
3.126557585E1;-1.147162080E0;4.853205681E0;2.468360901E0
3.128388707E1;-1.044981003E0;3.206114769E0;-2.226180077E0
3.130219927E1;8.377403021E-1;7.174081802E-1;-7.722833157E0
3.132051030E1;1.753594160E0;-5.238188744E0;-7.506009579E0
3.133882073E1;-1.091659307E0;-1.052904034E1;-5.085601807E0
3.135713176E1;-3.216021299E0;-7.285900116E0;-5.460946083E0
3.137544292E1;-3.096184492E0;-9.912118912E-1;-4.461361408E0
3.139375402E1;-2.549130678E0;3.302414894E0;-3.155234814E0
3.141206529E1;-4.018408775E0;-3.376379013E-1;-4.079751968E0
3.143037590E1;-3.269873857E0;-9.232693672E0;-2.519441605E0
3.144868785E1;-2.760619640E0;-1.339556789E1;9.473441124E0
3.146699901E1;-2.546992898E-1;-7.266447067E0;1.003660583E1
3.148530412E1;1.199068308E0;1.453158855E0;2.793400288E0
3.150361760E1;-1.289978027E-1;4.952371597E0;9.967832565E-1
3.152193535E1;-3.472325325E0;3.557508945E0;3.326985121E0
3.154024346E1;-3.553186417E0;1.021336555E0;3.664928675E0
3.155855455E1;-2.214695692E0;3.895092010E-2;5.120140553E0
3.157686589E1;-3.550735712E-1;-2.326030731E-1;4.478155136E0
3.159517705E1;2.143666744E0;-6.838531494E-1;3.058737278E0
3.161348717E1;3.855891943E0;-8.258972168E-1;1.657558203E0
3.163180376E1;3.430610180E0;7.902717590E-2;-8.252390027E-1
3.165011070E1;1.186775804E0;1.397908211E0;-2.905271292E0
3.166842205E1;5.041393042E-1;2.485775471E0;-3.088093042E0
3.168672838E1;6.590511203E-1;3.160935879E0;-2.485607624E0
3.170503240E1;-1.277785301E-1;2.992764950E0;-1.861699343E0
3.172335539E1;-9.857497215E-1;2.232479095E0;-1.593205690E0
3.174166515E1;-1.384655356E0;1.590019226E0;-1.624956965E0
3.175997789E1;-1.091908574E0;1.055547714E0;-1.401530266E0
3.177828899E1;-4.523102939E-1;6.435823441E-1;-1.014924169E0
3.179660027E1;5.924580097E-1;6.412925720E-1;-1.114898443E0
3.181491124E1;1.814914584E0;8.005342484E-1;-2.265882492E0
3.183322270E1;3.255008936E0;8.088951111E-1;-4.088911057E0
3.185153350E1;4.945426464E0;3.756999969E-1;-5.045909882E0
3.186984465E1;5.800956249E0;-2.456760406E-2;-4.665872097E0
3.188815611E1;5.806921959E0;-7.538852692E-1;-2.543772697E0
3.190646715E1;4.535686970E0;-1.204301834E0;-1.083815813E0
3.192477849E1;2.848197937E0;-1.197824478E0;-1.230097532E0
3.194309038E1;2.815462112E0;-1.789740562E0;-2.923730373E0
3.196140209E1;4.217284679E0;-3.842494965E0;-3.196326733E0
3.197971178E1;4.660702705E0;-5.085188866E0;-3.004288435E0
3.199802275E1;3.643369198E0;-4.083444595E0;-2.429957867E0
3.201633458E1;3.980964184E0;-3.157178879E0;-1.976151586E0
3.203464525E1;2.816019773E0;-3.404985428E0;-3.797118068E-1
3.205295659E1;-9.000464082E-1;-6.002900124E0;3.146424294E0
3.207126793E1;-4.929044724E0;-9.802265167E0;5.118381977E0
3.208957897E1;-7.936623096E0;-1.087035084E1;2.211747169E0
3.210789275E1;-6.990924358E0;-6.117134094E0;8.838391304E-2
3.212619664E1;-4.274199963E0;-1.615695953E0;8.988306522E-1
3.214451238E1;-2.184297562E0;6.423978806E-1;9.783992767E-1
3.216282360E1;-1.216479063E0;1.407641411E0;2.093945980E0
3.218112316E1;-4.057286978E-1;2.405486107E0;3.806596994E0
3.219944609E1;2.238631248E-3;3.847598076E0;3.871490955E0
3.221775719E1;1.783281565E-1;5.125973225E0;3.846730232E0
3.223606816E1;2.842942476E-1;5.492006302E0;4.421586037E0
3.225437340E1;2.380998135E-1;5.600352764E0;4.970503330E0
3.227269078E1;8.752858639E-2;5.847888947E0;5.560293198E0
3.229100182E1;-4.582185745E-1;6.142547131E0;5.701108932E0
3.230931291E1;-7.805020809E-1;5.940971375E0;5.497886658E0
3.232761943E1;-9.247626066E-1;5.439468861E0;4.564904213E0
3.234593547E1;-1.258574247E0;4.685590744E0;2.398231745E0
3.236424675E1;-1.772010922E0;3.556338787E0;-1.071816444E0
3.238255657E1;-1.174397349E0;1.243883133E0;-5.092084885E0
3.240086876E1;-9.713572264E-2;-4.660559654E0;-7.866144180E0
3.241917998E1;-1.938555956E0;-1.102667618E1;-9.422773361E0
3.243749108E1;-3.966527939E0;-7.733673096E0;-4.644611359E0
3.245580260E1;-3.132271528E0;-2.178342819E0;-3.312220335E0
3.247411363E1;-1.154488564E0;1.726074219E0;-2.994653225E0
3.249242485E1;-4.108113945E-1;3.685360909E0;-1.027469397E0
3.251073326E1;-2.633347988E0;1.519637108E0;2.009260416E0
3.252903624E1;-1.893277645E0;-6.992346764E0;2.529759407E0
3.254737346E1;-3.989345551E0;-1.183063030E1;1.176391697E1
3.256565813E1;-9.748393297E-1;-8.233608246E0;5.567636490E0
3.258398192E1;1.299022555E0;-2.008308411E0;1.527128577E0
3.260229216E1;2.071796358E-1;-1.488876343E-1;2.016178131E0
3.262060308E1;6.644467115E-1;2.829856873E-1;2.734850168E0
3.263891417E1;1.441730022E0;3.838396072E-1;5.000127316E0
3.265722545E1;2.069507599E0;5.017623901E-1;5.295281410E0
3.267553643E1;3.304795027E0;9.222421646E-1;3.959922314E0
3.269384795E1;4.085738182E0;1.864957333E0;1.883231997E0
3.271216020E1;3.017613888E0;2.404447556E0;-7.127516270E-1
3.273047100E1;5.520533919E-1;2.534352303E0;-3.196347713E0
3.274878142E1;-2.000657082E0;2.669379711E0;-4.752975941E0
3.276708776E1;-3.547030926E0;2.530519962E0;-4.387136459E0
3.278540367E1;-4.146191120E0;2.251125813E0;-2.420741796E0
3.280371764E1;-3.746907473E0;2.542112350E0;-3.940201402E-1
3.282202593E1;-3.259385586E0;2.158987045E0;5.567847490E-1
3.284033727E1;-2.490772963E0;1.249363899E0;-8.373547792E-1
3.285864855E1;-9.372581244E-1;4.455451965E-1;-3.307756424E0
3.287695952E1;2.511851788E0;-1.304016113E-1;-5.170337677E0
3.289526476E1;6.288395882E0;-6.877708435E-1;-4.463907242E0
3.291357817E1;8.761584282E0;-6.664638519E-1;-1.794704199E0
3.293189617E1;9.307479858E0;-3.776788712E-1;-4.671379328E-1
3.295020445E1;8.129308701E0;1.577167511E-1;-9.533109665E-1
3.296851549E1;6.458880424E0;7.343072891E-1;-2.952866554E0
3.298682677E1;4.483399391E0;-3.397369385E-2;-4.549118519E0
3.300513774E1;2.441632509E0;-8.902807236E-1;-5.156494617E0
3.302344762E1;3.122138023E0;-1.618732452E0;-4.116326332E0
3.304176018E1;4.758503437E0;-3.440875053E0;-4.999381065E0
3.306007158E1;4.459197044E0;-5.923767090E0;-3.276589870E0
3.307838243E1;3.034756422E0;-7.205131531E0;2.032478094E0
3.309669371E1;-3.345716596E-1;-8.079720497E0;8.031299591E0
3.311500493E1;-5.559183598E0;-9.867454529E0;8.280012131E0
3.313331621E1;-7.974579334E0;-1.326725101E1;1.012298107E0
3.315162609E1;-6.059530735E0;-1.132655239E1;-3.170346498E0
3.316992516E1;-4.245646477E0;-5.915731430E0;-1.347564340E0
3.318823912E1;-3.378353119E0;-1.930689812E0;1.486203790E0
3.320654997E1;-1.995011687E0;1.396228790E0;2.963827610E0
3.322487187E1;-2.012935400E0;4.746972561E0;3.773664713E0
3.324318321E1;-2.207216263E0;7.755980968E0;4.798992634E0
3.326147472E1;-1.103150964E0;7.821364403E0;5.075241089E0
3.327980553E1;2.070757151E-1;6.191508293E0;5.576699257E0
3.329811699E1;1.045620203E0;5.593965530E0;5.769706249E0
3.331642809E1;1.366035938E0;6.361827850E0;5.816645145E0
3.333473912E1;1.532660484E0;7.660325050E0;5.722926617E0
3.335305156E1;3.411921859E-1;7.598628998E0;4.945544720E0
3.337136040E1;-8.600010276E-1;6.732502937E0;3.204464436E0
3.338967272E1;-9.026925564E-1;5.581075191E0;3.704471588E-1
3.340798400E1;-1.041918278E0;4.556335449E0;-2.372951508E0
3.342629534E1;1.355698705E0;1.865573406E0;-4.147343636E0
3.344460637E1;-1.858221889E-1;-7.532723427E0;-5.742158890E0
3.346291710E1;-2.683842182E0;-1.231336498E1;-8.784997940E0
3.348122881E1;-3.590657949E0;-7.159123421E0;-6.931451797E0
3.349953679E1;-1.112581015E0;-1.982593536E0;-4.789031982E0
3.351785356E1;-1.051128507E-1;2.895552635E0;-1.079055309E0
3.353616026E1;-7.145061493E-1;6.552996635E0;3.600069523E0
3.355447331E1;-1.342202067E0;4.535018921E0;5.946924686E-1
3.357277007E1;-3.273744106E0;-6.469776154E0;5.781205177E0
3.359108696E1;-1.252786446E1;-2.256827927E1;1.845879173E1
3.360940685E1;-5.910347462E0;-1.930247498E1;6.661437988E0
3.362771794E1;3.440083981E0;-4.069327354E0;-1.590611339E0
3.364602910E1;6.544212103E-1;1.583906174E0;1.226086736E0
3.366433440E1;-1.097837210E0;3.283781528E0;4.113074780E0
3.368265270E1;-1.208691597E0;3.863583565E0;6.362177372E0
3.370095152E1;-1.056308270E0;3.738511086E0;6.032285690E0
3.371926287E1;-5.659691691E-1;3.208431244E0;4.134651184E0
3.373757347E1;1.573092937E0;2.653285027E0;6.503725648E-1
3.375588518E1;4.567728996E0;1.251218796E0;-2.302085400E0
3.377419634E1;4.980870247E0;4.760885239E-1;-3.175611496E0
3.379250737E1;4.260993481E0;7.454404831E-1;-2.489170790E0
3.381081920E1;3.229312181E0;1.769504547E0;-9.989259839E-1
3.382914385E1;1.833151579E0;2.326709270E0;-3.321064711E-1
3.384745207E1;5.267881751E-1;2.764915943E0;-5.102732778E-1
3.386576329E1;-9.828481674E-1;3.075910091E0;-3.515624046E0
3.388407756E1;-3.497247696E0;1.280220985E0;-8.966479301E0
3.390238561E1;-4.498774529E0;6.166553497E-2;-9.511890411E0
3.392069689E1;-4.266759455E-1;-6.003732681E-1;-5.649020195E0
3.393900426E1;7.139514923E0;-1.847846985E0;-1.910026431E0
3.395731896E1;1.137484646E1;-2.890713692E0;-5.164104700E-1
3.397563054E1;8.822594643E0;-2.283352852E0;-2.880239010E0
3.399394268E1;5.339720726E0;1.520099640E-1;-6.783639431E0
3.401225304E1;3.732482910E0;4.450807571E-1;-6.218666077E0
3.403056413E1;6.281502724E0;-2.778676033E0;-2.223980665E0
3.404887505E1;7.790469170E0;-3.948535919E0;-1.696617603E-1
3.406718639E1;4.624446392E0;-3.729329109E0;8.356517553E-1
3.408549742E1;1.364440560E0;-4.919639587E0;2.265522957E0
3.410380864E1;-1.853014946E0;-8.251707077E0;2.753086090E0
3.412212090E1;-7.931225777E0;-1.349211311E1;2.399373055E0
3.414043193E1;-1.240182018E1;-1.747832298E1;2.934857845E0
3.415874224E1;-8.267227173E0;-1.197638226E1;2.902786732E-1
3.417704894E1;-4.677908421E0;-4.961742401E0;-3.373234272E-1
3.419536461E1;-3.017908335E0;-1.088510513E0;7.630885839E-1
3.421367168E1;-2.408644199E0;1.099458694E0;2.151891232E0
3.423198692E1;-1.631208777E0;3.739899158E0;3.688744545E0
3.425029802E1;-3.316022754E-1;6.721628189E0;4.709294319E0
3.426860924E1;6.449472904E-1;8.746658325E0;5.195989609E0
3.428692052E1;1.316239119E0;8.832226753E0;5.734346867E0
3.430522563E1;1.223210692E0;7.578692436E0;6.045940399E0
3.432353917E1;9.488086700E-1;7.489486694E0;6.072368622E0
3.434185381E1;6.938233972E-1;6.940548897E0;6.011979580E0
3.436016515E1;-5.550622940E-1;6.151621342E0;5.809606552E0
3.437847649E1;-1.045077085E0;5.510546684E0;4.675068855E0
3.439678764E1;-6.096098423E-1;4.768497467E0;1.773184299E0
3.441509868E1;-5.214374661E-1;3.251104355E0;-3.454210758E0
3.443340862E1;2.169886827E0;6.996660233E-1;-6.866664410E0
3.445172106E1;1.372448564E0;-8.370837212E0;-4.269874096E0
3.447003215E1;-3.614314795E0;-1.527978230E1;-8.255859375E0
3.448834331E1;-5.958640099E0;-1.072984982E1;-6.185113907E0
3.450664336E1;-3.744300365E0;-2.536549568E0;-3.681864738E0
3.452495543E1;-3.474982738E0;4.703895092E0;-4.562436104E0
3.454326580E1;-4.804790020E0;2.137517929E0;-3.723326683E0
3.456157714E1;-3.394882679E0;-9.669343948E0;6.283092499E-1
3.457988878E1;-3.616220951E0;-1.489710903E1;1.316028690E1
3.459819951E1;-1.955378652E-1;-6.847600937E0;9.250465393E0
3.461651097E1;6.332830191E-1;2.158291817E0;3.625669003E0
3.463482164E1;-1.411211848E0;3.898353100E0;4.866408348E0
3.465313310E1;-2.301753283E0;1.557244301E0;5.011829376E0
3.467144408E1;-6.295568347E-1;-2.804279327E-1;5.523329735E0
3.468975646E1;6.799156070E-1;-1.188629150E0;5.448890209E0
3.470807714E1;3.192755222E0;-1.329480171E0;3.741719246E0
3.472637712E1;4.827490330E0;-8.086662292E-1;1.443896532E0
3.474468889E1;3.783053875E0;4.621791840E-1;-2.019002438E0
3.476300005E1;1.319941998E0;2.065627098E0;-5.181190491E0
3.478131365E1;1.652007699E-1;3.657683849E0;-5.675286293E0
3.479963347E1;9.158048630E-1;4.254108429E0;-4.129053593E0
3.481794469E1;5.968800783E-1;4.033700943E0;-2.356871367E0
3.483625591E1;-1.042450070E0;3.129305840E0;-4.118887782E-1
3.485456700E1;-1.874443293E0;2.131916523E0;-2.881545126E-1
3.487287828E1;-1.964946508E0;1.078761101E0;-1.799608469E0
3.489119072E1;-2.073788643E0;3.812875748E-1;-3.447880268E0
3.490950060E1;-8.528885841E-1;4.298753738E-1;-4.208984852E0
3.492781188E1;1.970224977E0;6.030082703E-1;-3.961428881E0
3.494611833E1;4.671291828E0;3.506755829E-2;-3.187335253E0
3.496443462E1;6.660336018E0;-1.344560623E0;-2.506713152E0
3.498274224E1;6.998933792E0;-1.730958939E0;-2.002803564E0
3.500105669E1;5.259778976E0;-1.080492973E0;-2.620121002E0
3.501936772E1;2.530271292E0;-1.370144844E0;-3.097372055E0
3.503767851E1;3.296016932E0;-3.954932213E0;-2.326698065E0
3.505599034E1;4.994466305E0;-6.095668793E0;-7.144808769E-1
3.507429540E1;3.307699442E0;-4.999564171E0;-3.882689476E-1
3.509261272E1;2.021924019E0;-3.557828903E0;-9.356775880E-1
3.511092369E1;9.193494916E-1;-3.899009705E0;-2.843386412E0
3.512923497E1;-1.835619211E-1;-5.818085670E0;-3.044428587E0
3.514754601E1;-3.391703606E0;-8.472095490E0;4.039070904E-1
3.516585729E1;-7.633628368E0;-9.918824196E0;1.497381330E0
3.518416826E1;-9.086092949E0;-7.510394096E0;1.822883368E0
3.520247844E1;-8.168962479E0;-3.514999390E0;2.521486759E0
3.522079088E1;-6.291190147E0;-6.554470062E-1;3.105745077E0
3.523910185E1;-4.415639877E0;1.442909241E0;2.008236408E0
3.525741320E1;-2.286613703E0;2.183023453E0;7.680773735E-1
3.527572441E1;-4.036423266E-1;2.869862556E0;2.975161552E0
3.529403551E1;1.253954172E0;4.182389259E0;3.992768526E0
3.531234685E1;1.657097816E0;5.522779465E0;4.198568344E0
3.533065898E1;1.010967731E0;6.041385651E0;4.684319496E0
3.534896910E1;5.748638511E-1;6.031468391E0;4.851625919E0
3.536728038E1;4.270613790E-1;6.334753990E0;5.142197609E0
3.538559136E1;-9.134590626E-3;6.157254219E0;5.336962223E0
3.540390648E1;-8.809849024E-1;5.340421677E0;4.564221859E0
3.542221373E1;-1.029857993E0;4.629152298E0;3.345017672E0
3.544052605E1;-9.753414392E-1;3.684270859E0;2.144613266E-1
3.545883556E1;-1.084310412E0;1.511434555E0;-4.898279667E0
3.547714733E1;1.182118773E0;-1.881831169E0;-9.325510979E0
3.549545860E1;2.018988132E-2;-7.726688385E0;-6.498239517E0
3.551376988E1;-1.379225612E0;-6.270761490E0;-4.299142838E0
3.553208232E1;-2.683594942E0;-1.987942696E0;-2.931604862E0
3.555039305E1;-2.849055052E0;-3.189563751E-2;-5.322910786E0
3.556870330E1;-3.274284601E0;-5.707153320E0;-8.111079216E0
3.558700963E1;-7.446020842E-2;-1.047632504E1;-1.014552116E-1
3.560532585E1;7.704457641E-1;-9.048499107E0;1.242076397E1
3.562363634E1;-1.032846689E0;-8.959970474E-1;9.045562744E0
3.564193553E1;-4.256261587E-1;4.601815224E0;2.941906691E0
3.566025902E1;-3.811142921E0;3.534531593E0;4.577592373E0
3.567857018E1;-6.052467346E0;4.399061203E-1;4.806501865E0
3.569688170E1;-4.060890198E0;-1.110842705E0;4.190176487E0
3.571518688E1;-2.688703299E0;-1.099736214E0;4.577099800E0
3.573350762E1;-1.302749395E0;-1.071644783E0;4.135571480E0
3.575181590E1;6.351096630E-1;-1.924201965E0;2.859697819E0
3.577012627E1;2.771699667E0;-2.593169212E0;1.050834894E0
3.578843761E1;3.947591543E0;-1.227409363E0;-8.401290178E-1
3.580674864E1;4.432051182E0;3.303012848E-1;-2.457381964E0
3.582506365E1;3.134259224E0;1.640666962E0;-3.024811268E0
3.584336998E1;2.383260965E0;3.021141052E0;-3.024933338E0
3.586168199E1;2.757386684E0;4.101077557E0;-2.726868153E0
3.587999358E1;1.876835346E0;4.666045189E0;-1.900701165E0
3.589830455E1;4.345443547E-1;3.870705128E0;-1.276033759E0
3.591661577E1;-7.522077858E-2;2.490268707E0;-1.248477936E0
3.593492711E1;1.559199244E-1;1.729495049E0;-1.707514763E0
3.595323839E1;1.439602226E-1;7.487993240E-1;-2.273984909E0
3.597155040E1;2.956539392E-1;-4.600372314E-1;-3.155750751E0
3.598986070E1;4.881475866E-1;-1.188668251E0;-4.423247814E0
3.600817198E1;2.102704287E0;-2.015654564E0;-4.769447327E0
3.602648302E1;5.507171154E0;-2.724947929E0;-3.925622463E0
3.604479412E1;7.568132877E0;-3.131294250E0;-3.342631817E0
3.606310515E1;7.079831600E0;-2.834328651E0;-2.588032246E0
3.608141655E1;6.727039814E0;-2.682556152E0;-1.791336298E0
3.609972759E1;6.483627319E0;-4.381739616E0;-9.294571877E-1
3.611803874E1;4.656836510E0;-3.636034012E0;-5.042284727E-1
3.613634996E1;3.091436386E0;-3.391889572E0;3.009864092E-1
3.615466118E1;8.717245460E-1;-4.271458626E0;5.641857386E-1
3.617297374E1;-1.483601809E0;-6.211186409E0;-1.377081633E0
3.619128258E1;-4.197273254E0;-8.793394089E0;-1.278879166E0
3.620959477E1;-8.158231735E0;-1.025556946E1;4.395109117E-1
3.622790599E1;-9.438114166E0;-7.894030571E0;1.640592337E0
3.624621715E1;-7.892197609E0;-3.521714211E0;1.994053841E0
3.626452818E1;-5.377871990E0;-6.969947815E-1;2.363803625E0
3.628283824E1;-3.374783516E0;1.127125740E0;2.388121367E0
3.630114000E1;-1.323651552E0;1.854566574E0;1.783822536E0
3.631946202E1;9.788319468E-2;2.269777298E0;3.102576494E0
3.633777312E1;1.773644209E0;3.453590393E0;4.432349682E0
3.635607970E1;2.181178570E0;5.023683548E0;4.350349903E0
3.637439537E1;9.208076596E-1;5.940699100E0;4.283151150E0
3.639270976E1;5.782055855E-2;6.094890594E0;4.586694717E0
3.641101793E1;2.522403002E-1;6.293732643E0;5.124760151E0
3.642932915E1;-3.462809324E-1;6.839685917E0;5.912650108E0
3.644763701E1;-1.696357012E0;6.907909393E0;5.635203838E0
3.646593974E1;-2.268214941E0;6.143168449E0;4.147271633E0
3.648425676E1;-1.888064742E0;4.782070637E0;1.780863762E0
3.650257360E1;-1.766024113E0;2.516790867E0;-1.762612820E0
3.652088506E1;-6.396082640E-1;-1.507759094E-2;-6.055330753E0
3.653919408E1;1.912687182E0;-4.098632812E0;-8.297571182E0
3.655750719E1;5.719491243E-1;-8.492270470E0;-5.771996021E0
3.657581871E1;-4.851988554E-1;-5.348529816E0;-2.638468742E0
3.659412999E1;-2.144560814E0;-1.563120842E0;-3.039801598E0
3.661243926E1;-1.370580673E0;1.762714386E0;-3.023118019E0
3.663075206E1;-2.238372564E0;7.498207092E-1;-1.433898449E0
3.664906328E1;-2.503836632E0;-4.556259155E0;4.773139954E-2
3.666737468E1;-2.416097879E0;-9.280304909E0;7.179726601E0
3.668567168E1;-4.836078167E0;-9.440589905E0;9.988207817E0
3.670398711E1;-1.537580609E0;-3.241099358E0;9.074645042E-1
3.672229723E1;-2.927175283E0;-2.145490646E-1;-4.830121994E-2
3.674062218E1;-7.969739914E0;-4.135026932E-1;5.451869965E0
3.675893053E1;-6.481532097E0;1.754665375E-2;4.212242126E0
3.677724156E1;-3.623413563E0;5.661325455E-1;3.879700184E0
3.679555278E1;-4.445583820E-1;5.808267593E-1;4.172377110E0
3.681386522E1;3.359987020E0;-3.333520889E-1;3.756963253E0
3.683217510E1;5.668066502E0;-1.381524086E0;3.049538851E0
3.685048735E1;6.245192051E0;-1.378198624E0;1.398649693E0
3.686879778E1;4.272069454E0;7.019329071E-2;-3.928586245E-1
3.688710900E1;2.336448669E0;2.323283195E0;-2.750183821E0
3.690542003E1;3.243803024E0;4.462889671E0;-4.162950039E0
3.692372514E1;2.576905489E0;5.181518555E0;-4.058848858E0
3.694204210E1;5.146828890E-1;4.509449005E0;-2.899479628E0
3.696035362E1;-3.371388912E-1;3.032735825E0;-2.360354900E0
3.697866466E1;-6.851398349E-1;1.531137466E0;-1.927714229E0
3.699697136E1;-1.872038841E-1;7.426738739E-1;-1.316680789E0
3.701528722E1;-2.972577810E-1;-2.241621017E-1;-2.370740891E0
3.703359484E1;-3.651644588E-1;-1.750500679E0;-6.064020157E0
3.705191118E1;3.307236195E0;-7.692375183E-1;-5.599146843E0
3.707022081E1;7.160001755E0;-1.355412483E0;-2.932081938E0
3.708853203E1;7.780888081E0;-2.062538147E0;-4.829741716E-1
3.710684319E1;4.194565296E0;-1.522512436E0;-7.480352521E-1
3.712514836E1;1.328262925E0;-1.311046600E0;-3.374538422E0
3.714346544E1;1.616987467E0;-2.316456795E0;-4.898075581E0
3.716177672E1;5.212571144E0;-4.779182434E0;-3.896971226E0
3.718008800E1;5.954499245E0;-5.008634567E0;-2.661485672E0
3.719839897E1;3.562075615E0;-3.566922188E0;-1.214751840E0
3.721671038E1;2.243552685E0;-2.442599297E0;-2.010059357E-1
3.723502153E1;1.539633274E0;-2.355134964E0;-2.559868693E-1
3.725333379E1;-1.102814198E0;-4.348962784E0;1.094982624E0
3.727164391E1;-4.946838379E0;-8.250183105E0;2.585413933E0
3.728995519E1;-8.933705330E0;-1.157485485E1;1.206297636E0
3.730826622E1;-8.739010811E0;-9.966672897E0;-1.430854201E0
3.732656633E1;-5.051435471E0;-4.905447960E0;6.427824497E-2
3.734487755E1;-2.512700319E0;-1.631588936E0;1.403422952E0
3.736318865E1;-1.501612663E0;4.188728333E-2;2.261558056E0
3.738149938E1;-7.740594745E-1;1.791156769E0;4.622292995E0
3.739981236E1;8.989163637E-1;4.469193459E0;5.101080894E0
3.741812145E1;2.779805660E-1;6.116002083E0;5.319823265E0
3.743643328E1;-8.821487427E-3;6.023449421E0;5.498158455E0
3.745475566E1;-3.935687542E-1;5.477086544E0;5.421229839E0
3.747305583E1;-1.048250556E0;5.286916733E0;5.590460300E0
3.749137694E1;-2.339147806E0;4.575278282E0;5.167033672E0
3.750968932E1;-2.949188232E0;4.116217613E0;3.931698322E0
3.752800054E1;-2.987848997E0;3.677773476E0;1.503892899E0
3.754631188E1;-2.028339863E0;2.284120083E0;-3.483246803E0
3.756461718E1;8.484661579E-2;-1.166291237E-1;-8.880838394E0
3.758293401E1;4.046271801E0;-1.614110947E0;-7.578933239E0
3.760124437E1;4.587350368E0;-9.931931496E-1;-1.410412788E0
3.761955937E1;2.936932325E0;2.215194702E-1;-1.516421795E0
3.763785613E1;-8.189549446E-1;1.933267117E0;3.525680542E0
3.765617888E1;-4.210448265E0;-1.327211857E0;-1.911307335E0
