"Time (s)";"Linear Acceleration x (m/s^2)";"Linear Acceleration y (m/s^2)";"Linear Acceleration z (m/s^2)"
6.353956000E-2;-6.396448612E-1;2.613996983E0;8.559675217E-1
8.186524400E-2;-7.263071537E-1;2.738369465E0;1.229188919E0
1.001749970E-1;-1.263290644E0;2.810652256E0;3.587875366E-1
1.184870700E-1;-2.090465069E0;2.282081604E0;-6.979475021E-1
1.367948100E-1;-1.387190580E0;2.565270901E0;-8.385324478E-1
1.551118260E-1;-9.605467319E-1;3.318689346E0;-9.228658676E-1
1.734240820E-1;-3.110089302E-1;3.503929377E0;-6.837635040E-1
1.917366430E-1;4.594802856E-1;3.733384132E0;-3.291578293E-1
2.100470680E-1;6.240508556E-1;3.938272715E0;-4.918689728E-1
2.283613380E-1;4.610893726E-1;3.758682489E0;-1.346933842E0
2.466738380E-1;-1.448440552E-2;3.385193825E0;-2.524715900E0
2.649871920E-1;-4.662272930E-1;3.405595303E0;-2.927723885E0
2.832995700E-1;-9.814667702E-2;3.857350111E0;-2.888138294E0
3.016106050E-1;-5.872678757E-2;4.062919140E0;-2.557836533E0
3.199231050E-1;-8.407974243E-2;4.197180748E0;-1.890527725E0
3.382354220E-1;-5.030965805E-2;4.321675777E0;-8.331060410E-1
3.565486540E-1;1.532549858E-1;4.147933483E0;-7.932090759E-2
3.748601170E-1;3.342691660E-1;3.705501795E0;-1.079671860E0
3.931735940E-1;-6.638097763E-2;3.734758377E0;-2.026167870E0
4.114849340E-1;-1.354776621E-1;3.888741255E0;-1.978816986E0
4.297984100E-1;3.203081489E-1;3.928979397E0;-1.741969585E0
4.481093840E-1;7.184599042E-1;4.106588364E0;-1.453662872E0
4.664216400E-1;3.811718822E-1;4.148555279E0;-5.691165924E-1
4.847342010E-1;-4.643082619E-2;3.942156076E0;2.306175232E-2
5.030447490E-1;-2.289961576E-1;3.852740765E0;-4.480743408E-2
5.213585910E-1;2.678376436E-2;3.553705692E0;-1.470794678E-1
5.396711520E-1;2.842042446E-1;3.660238504E0;-2.915115356E-1
5.579836520E-1;2.874085307E-1;3.982550144E0;-7.348718643E-1
5.762915140E-1;2.561918795E-1;4.093820572E0;-1.104665756E0
5.946084080E-1;2.267557979E-1;3.986961365E0;-1.178829193E0
6.129204810E-1;1.712181568E-1;3.784462214E0;-4.604177475E-1
6.312329200E-1;-8.953773975E-2;3.473350525E0;-1.088867188E-1
6.495463960E-1;-1.278266311E-1;3.326713324E0;-3.234596252E-1
6.678574310E-1;3.699466586E-2;3.378191233E0;-1.164108276E0
6.861699310E-1;1.645573974E-1;3.671790123E0;-1.736301422E0
7.044810280E-1;2.256404459E-1;3.876669645E0;-1.621545792E0
7.227957250E-1;2.329456806E-2;3.832049131E0;-1.216995239E0
7.411066990E-1;-4.366835952E-2;3.539130688E0;-1.378418922E0
7.594223730E-1;-2.767862380E-1;3.674123764E0;-2.005921841E0
7.777268770E-1;-4.354048967E-1;3.697878361E0;-2.538100243E0
7.960449310E-1;-6.416473389E-1;3.832014561E0;-1.319766998E0
8.143562110E-1;-4.109839201E-1;3.930327892E0;-1.751403809E-1
8.326685280E-1;-5.031297803E-1;3.823526859E0;2.757959366E-1
8.509807220E-1;-4.841104746E-1;3.584033728E0;2.128181458E-1
8.692945040E-1;-8.158757687E-1;3.306368828E0;2.962036133E-1
8.876054780E-1;-4.378997087E-1;3.620386124E0;-3.484344482E-1
9.059191380E-1;-1.767843366E-1;3.767688751E0;-9.257602692E-1
9.242302950E-1;-1.272958517E-1;4.128916740E0;4.096126556E-2
9.425437110E-1;-8.140196800E-1;4.346287727E0;8.536357880E-1
9.608549900E-1;-1.218931913E0;4.337607384E0;9.932270050E-1
9.791675510E-1;-7.228799462E-1;4.012536526E0;4.856586456E-1
9.974794410E-1;1.038175225E-1;4.183404446E0;1.586914062E0
1.015793222E0;2.610378861E-1;5.585231304E0;1.835638046E0
1.034105662E0;1.991889477E-1;4.048165321E0;-1.007757187E0
1.052410898E0;1.259234667E0;2.636861563E0;-2.995019913E0
1.070729074E0;8.982298970E-1;1.810162783E0;-1.333739281E0
1.089042734E0;-7.043368816E-1;1.178038120E0;1.989950180E0
1.107353525E0;-1.305274487E0;1.390324354E0;3.504224777E0
1.125666025E0;-5.086097717E-1;1.483812332E0;1.819369316E0
1.143978281E0;8.789906502E-1;2.978580475E0;-1.336773396E0
1.162293223E0;1.146467090E0;3.603256226E0;-1.921851158E0
1.180603037E0;1.297449827E0;4.179141045E0;-1.967223644E0
1.198915354E0;2.615742445E0;6.154943466E0;-3.978831291E0
1.217222971E0;4.679914474E0;7.343214989E0;-1.669798851E0
1.235541025E0;3.966691494E0;6.169315338E0;-1.481689453E0
1.253840952E0;2.906304359E0;4.398638248E0;2.082700729E-1
1.272165476E0;1.630860209E0;2.458773851E0;3.016092300E0
1.290476816E0;1.638784885E0;1.376810312E0;5.627143860E0
1.308790293E0;2.582074881E0;2.922115564E0;5.413455963E0
1.327098948E0;3.228455067E0;4.050202847E0;2.997242928E0
1.345408274E0;2.598229408E0;4.628441811E0;-4.306983948E-1
1.363726328E0;2.331322193E0;5.009089470E0;-2.889590740E0
1.382039865E0;1.997141600E0;4.541247845E0;-3.228718281E0
1.400351389E0;9.120171070E-1;3.674202919E0;-3.293711662E0
1.418658762E0;7.464858890E-1;2.917815208E0;-3.667176723E0
1.436975534E0;1.092342138E0;2.922796488E0;-4.151694298E0
1.455285410E0;1.629495978E0;3.224316835E0;-4.825034618E0
1.473599192E0;1.472337961E0;2.642949104E0;-5.804291248E0
1.491912668E0;1.600786209E0;8.083976507E-1;-5.194339752E0
1.510224863E0;1.502965450E0;2.480595112E-1;-3.319361210E0
1.528535716E0;1.201199055E0;2.231335640E-2;-2.593163967E0
1.546849619E0;9.055900574E-1;-5.638782978E-1;-2.679893017E0
1.565162180E0;1.066242695E0;-4.348144531E-1;-2.771566629E0
1.583477183E0;1.323128223E0;-2.067594528E-1;-2.943196774E0
1.601787851E0;1.183135033E0;-1.738825798E0;-3.251781464E0
1.620098947E0;9.558582306E-1;-2.026970387E0;-3.845957041E0
1.638398081E0;3.188615322E0;-3.472065926E-1;-5.613195419E0
1.656726572E0;6.502718925E0;1.306329250E0;-5.499016762E0
1.675038340E0;6.611531734E0;2.903815269E0;-4.270100117E0
1.693334117E0;5.799827099E0;3.204849243E0;-4.277482986E0
1.711648936E0;4.837010384E0;2.508448601E0;-3.284648180E0
1.729961374E0;3.313364029E0;1.778221130E-1;-2.358945608E0
1.748275705E0;1.247861385E0;-1.963853359E0;-1.962632298E0
1.766586863E0;1.366462708E-1;-3.878907681E0;-1.912186861E0
1.784899241E0;-8.879513741E-1;-4.949214935E0;-1.556633115E0
1.803211191E0;-1.694450855E0;-5.132347107E0;-1.226263046E0
1.821524973E0;-2.026544571E0;-3.358915329E0;-1.544102788E0
1.839836375E0;-1.275695324E0;-2.362826824E0;-2.007889271E0
1.858149180E0;-6.432652473E-1;-2.151883125E0;-2.531072855E0
1.876461008E0;-2.924942970E-1;-2.168575764E0;-3.255095243E0
1.894773996E0;-1.926679611E-1;-2.270221233E0;-4.352668762E0
1.913095530E0;1.043005943E0;-9.670367241E-1;-4.150889397E0
1.931408457E0;1.640848160E0;5.462093353E-1;-4.446616650E0
1.949720957E0;1.622811794E0;1.330333233E0;-3.744678497E0
1.968034433E0;1.483758450E0;1.165488720E0;-3.377085209E0
1.986339366E0;7.427225113E-1;-1.729316711E-1;-3.091621876E0
2.004657968E0;3.579387665E-1;-9.512038231E-1;-2.573721170E0
2.022969370E0;4.063992500E-1;-4.501976967E-1;-2.674051046E0
2.041283762E0;-5.019617081E-1;-6.456413269E-1;-3.743068457E0
2.059594980E0;-8.802361488E-1;-6.868591309E-1;-3.856563568E0
2.077907724E0;-9.616732597E-1;-6.721777916E-1;-3.822944164E0
2.096220957E0;-9.960560799E-1;-9.804115295E-1;-3.402533531E0
2.114531993E0;-8.393111229E-1;-1.142268181E0;-2.896118164E0
2.132844248E0;-9.846467972E-1;-1.119949818E0;-2.937510490E0
2.151156504E0;-9.585523605E-1;-1.012353420E0;-3.129017353E0
2.169457346E0;-8.862848282E-1;-1.006619453E0;-2.683246613E0
2.187782236E0;-1.362700939E0;-9.076557159E-1;-2.753720522E0
2.206093515E0;-1.716387510E0;-9.646539688E-1;-3.304986000E0
2.224405771E0;-2.084296465E0;-1.361736298E0;-3.270620823E0
2.242718271E0;-2.197255611E0;-1.819664001E0;-2.969330788E0
2.261031504E0;-2.733462095E0;-2.294840336E0;-2.844427824E0
2.279343088E0;-2.780229568E0;-1.969771862E0;-2.765300512E0
2.297655283E0;-2.665140629E0;-1.500147820E0;-2.675333023E0
2.315968760E0;-2.503986835E0;-9.484424591E-1;-2.794128895E0
2.334278147E0;-2.188019276E0;-6.311712265E-1;-2.534413576E0
2.352592050E0;-2.040685892E0;-7.613630295E-1;-2.360629559E0
2.370904306E0;-1.921368361E0;-8.308887482E-1;-2.443438530E0
2.389216562E0;-1.935295343E0;-7.333774567E-1;-2.834241390E0
2.407530283E0;-2.125191689E0;-7.130966187E-1;-3.037737370E0
2.425841379E0;-2.337419987E0;-8.969764709E-1;-2.790726662E0
2.444154795E0;-2.552878857E0;-1.176702499E0;-2.791969538E0
2.462465830E0;-2.688907862E0;-1.488786697E0;-2.706394196E0
2.480779550E0;-2.739952803E0;-1.710336685E0;-2.217757225E0
2.499086252E0;-2.512778521E0;-1.622028351E0;-2.057153225E0
2.517402842E0;-2.480338812E0;-1.413431168E0;-2.147414446E0
2.535715342E0;-2.634083271E0;-1.274271011E0;-2.436177492E0
2.554028818E0;-2.797171116E0;-9.900169373E-1;-2.580533028E0
2.572326975E0;-2.709995031E0;-8.545818329E-1;-2.309424877E0
2.590652170E0;-2.547211170E0;-9.924449921E-1;-2.413676739E0
2.608964487E0;-2.715187550E0;-1.066212654E0;-2.216745853E0
2.627273203E0;-2.772562027E0;-9.673671722E-1;-1.859948874E0
2.645589182E0;-2.921364546E0;-7.416458130E-1;-2.072697163E0
2.663901560E0;-2.983123064E0;-6.885738373E-1;-1.902989030E0
2.682215037E0;-2.843656778E0;-6.457376480E-1;-1.509560347E0
2.700527414E0;-2.755153179E0;-6.756591797E-1;-1.431354403E0
2.718838327E0;-3.007219553E0;-8.899908066E-1;-1.439570546E0
2.737150949E0;-3.119269848E0;-1.060710907E0;-1.356521368E0
2.755457102E0;-3.072930574E0;-9.939441681E-1;-1.357202172E0
2.773776560E0;-3.026437283E0;-9.999160767E-1;-1.247284532E0
2.792090586E0;-2.953301430E0;-9.169855118E-1;-1.231729388E0
2.810396983E0;-3.173964500E0;-1.047220230E0;-1.325469255E0
2.828712412E0;-3.328361511E0;-1.176967621E0;-1.647409678E0
2.847024912E0;-3.169878006E0;-1.156883240E0;-2.025279284E0
2.865325449E0;-3.183842182E0;-1.193582535E0;-2.357576132E0
2.883648265E0;-2.983297348E0;-1.225872993E0;-2.581808805E0
2.901950083E0;-2.639058113E0;-1.290952682E0;-2.412734509E0
2.920275156E0;-2.586018801E0;-1.261763573E0;-2.308932304E0
2.938586191E0;-7.679431438E0;-4.897465706E0;-8.214793205E0
2.956898691E0;-5.019073486E0;-3.049365997E0;-5.218280792E0
2.975210764E0;-7.630701065E-1;-2.466323853E0;-2.077183485E0
2.993524485E0;-1.908250809E0;-1.047627449E0;-5.690498948E-1
3.011835459E0;-2.575484514E0;-1.267592430E0;8.943730593E-2
3.030144969E0;-2.677685738E0;-1.741256714E-1;-1.375331879E-1
3.048460215E0;-2.601863384E0;1.866722107E-2;-2.099319696E0
3.066773691E0;-3.134022474E0;-3.799219131E-1;-3.357434511E0
3.085085886E0;-2.977090120E0;-3.819980621E-1;-1.294322252E0
3.103397043E0;-3.342333794E0;-8.405942917E-1;-1.018417597E0
3.121709482E0;-3.198266029E0;-8.589611053E-1;-1.229344368E0
3.140022959E0;-2.917198420E0;-2.039394379E-1;-1.614029169E0
3.158334177E0;-2.568583965E0;-1.032791138E-1;-1.983533621E0
3.176649912E0;-2.245205879E0;-8.729362488E-2;-2.305963755E0
3.194958750E0;-1.763143301E0;4.457979202E-1;-2.201393604E0
3.213273447E0;-2.018606663E0;-1.832809448E-1;-2.693356276E0
3.231583506E0;-2.349297047E0;-7.263708115E-1;-3.111747026E0
3.249895517E0;-2.434937477E0;-4.698228836E-1;-2.233869314E0
3.268203440E0;-2.373089790E0;-2.245187759E-1;-2.387428761E0
3.286509775E0;-2.324069262E0;2.805004120E-1;-2.400556087E0
3.304827098E0;-2.201061010E0;3.274192810E-1;-2.312779427E0
3.323135203E0;-1.942311049E0;-1.173229218E-1;-2.720568895E0
3.341459482E0;-2.070676804E0;-2.664823532E-1;-2.169654608E0
3.359770578E0;-2.231409550E0;-2.547569275E-1;-1.745278955E0
3.378081858E0;-2.348433256E0;3.803348541E-2;-1.764364004E0
3.396388438E0;-2.678550243E0;-1.826028824E-1;-2.226072788E0
3.414706552E0;-3.133413315E0;-3.305883408E-1;-2.039862633E0
3.433019236E0;-3.264642000E0;-2.733802795E-1;-1.821536541E0
3.451331369E0;-3.159602404E0;-2.199392319E-1;-1.109614372E0
3.469643564E0;-2.536579132E0;6.603431702E-2;-1.830387115E0
3.487956675E0;-2.105330706E0;2.792730331E-1;-2.086409569E0
3.506269052E0;-2.596711636E0;1.644372940E-1;-2.196080446E0
3.524579173E0;-2.683549166E0;-2.769479752E-1;-2.241647243E0
3.542894847E0;-2.533291578E0;-5.048122406E-1;-2.100790024E0
3.561194101E0;-2.833052158E0;-6.918525696E-1;-2.070567369E0
3.579507761E0;-2.811145067E0;-4.034013748E-1;-1.847036600E0
3.597819040E0;-2.411195755E0;-2.442779541E-1;-2.287716389E0
3.616131479E0;-1.750641823E0;-3.535747528E-2;-3.270961046E0
3.634442942E0;-1.937923908E0;2.726459503E-2;-2.961727142E0
3.652756845E0;-2.352526665E0;-4.418773651E-1;-2.042099953E0
3.671067392E0;-2.307563782E0;-1.077318192E-1;-2.231441498E0
3.689379343E0;-2.154641390E0;-3.720378876E-2;-2.814192295E0
3.707693735E0;-2.089884520E0;2.537679672E-1;-2.415290356E0
3.726006418E0;-2.223482132E0;3.477802277E-1;-2.369672775E0
3.744317698E0;-2.605916500E0;2.155799866E-1;-2.271997929E0
3.762628977E0;-2.666493654E0;-8.937072754E-2;-1.965201497E0
3.780955759E0;-2.319347143E0;-1.085519791E-1;-2.160326004E0
3.799267344E0;-2.145161390E0;1.546354294E-1;-2.232148886E0
3.817577463E0;-1.690922976E0;8.227729797E-1;-2.308493614E0
3.835890146E0;-1.619935274E0;6.631393433E-1;-2.612771511E0
3.854203318E0;-1.834835052E0;-1.066293716E-1;-2.457391024E0
3.872515451E0;-1.967483759E0;8.928203583E-2;-2.320338249E0
3.890826670E0;-2.013295650E0;4.139747620E-1;-2.470321178E0
3.909134043E0;-2.121482849E0;3.111600876E-1;-2.764777899E0
3.927451242E0;-1.947430372E0;-6.964588165E-2;-2.691200733E0
3.945764414E0;-2.102264643E0;5.572509766E-2;-2.462322474E0
3.964075754E0;-2.238790035E0;1.215848923E-1;-2.458958149E0
3.982389353E0;-2.182779789E0;-1.795663834E-1;-2.514432430E0
4.000700205E0;-1.730857849E0;-4.940519333E-1;-2.932054758E0
4.019013925E0;-1.767354488E0;7.923698425E-2;-2.855891228E0
4.037320383E0;-2.263518572E0;6.800203323E-1;-2.271185398E0
4.055637766E0;-2.740060329E0;9.420423508E-1;-1.697800159E0
4.073949717E0;-2.250895500E0;1.896820068E-1;-2.957868099E0
4.092264292E0;-2.104493141E0;-4.383764267E-1;-3.086129427E0
4.110574289E0;-1.924607754E0;-6.249170303E-1;-2.943053246E0
4.128883555E0;-1.391716957E0;1.731185913E-1;-2.481401205E0
4.147198740E0;-1.009446144E0;1.644949913E-1;-2.581624269E0
4.165506419E0;-1.115479469E0;2.483801842E-1;-2.509651661E0
4.183823435E0;-1.120067596E0;-1.203265190E-1;-2.700019360E0
4.202136607E0;-8.980832100E-1;-3.987002373E-1;-3.616609812E0
4.220448252E0;-1.517415524E0;5.387587547E-1;-2.299062729E0
4.238761423E0;-1.411118031E0;6.720361710E-1;-1.818751812E0
4.257072885E0;-6.793117523E-2;-2.414655685E-1;-4.135338783E0
4.275381357E0;-3.741946220E-1;-1.808300495E0;-3.431061268E0
4.293696054E0;-5.578408241E-1;-1.545899868E0;-2.065643072E0
4.312010813E0;-3.732433319E-1;-1.532631874E0;-2.535525799E0
4.330318919E0;1.041873932E0;-1.681449890E0;-4.092852116E0
4.348634287E0;1.858413696E0;-1.841808319E0;-4.543787956E0
4.366946543E0;2.101353645E0;-1.996061802E0;-4.449542046E0
4.385256296E0;2.275597572E0;-1.984838009E0;-3.493069649E0
4.403571115E0;1.856287956E0;-2.290454865E0;-3.857797146E0
4.421883310E0;1.141190529E-1;-1.067786694E0;-2.825549841E0
4.440195627E0;2.913556099E-1;-1.117294312E0;-3.436377525E0
4.458509104E0;1.024677277E0;-2.441050529E0;-4.040488720E0
4.476820322E0;1.824714661E0;-2.621966839E0;-8.314386368E0
4.495133799E0;1.871614456E0;-1.732153893E0;-6.752642155E0
4.513444834E0;2.013211727E0;-2.046902657E0;-2.913635254E0
4.531758310E0;3.614621162E-1;-2.936439991E0;-2.018902063E0
4.550069468E0;1.579637527E0;-2.820420265E0;-1.710377693E0
4.568382090E0;3.611258030E0;-3.037991762E0;-5.708989143E0
4.586694040E0;3.646742344E0;-2.287591457E0;-5.289004326E0
4.605007639E0;2.938919067E0;-2.050004005E0;-1.797882557E0
4.623320078E0;9.957547188E-1;-1.769814014E0;-1.128769875E0
4.641631052E0;-3.967115879E-1;-1.776498318E0;-1.880848408E0
4.659943369E0;-6.417622566E-1;-1.464704752E0;-3.340098381E0
4.678252207E0;3.323652744E-1;-4.633376598E-1;-3.336627960E0
4.696567942E0;1.640703201E0;1.449124813E-1;-2.780198097E0
4.714880381E0;3.613947392E0;-4.010589123E-1;-7.310047150E-1
4.733178538E0;7.470300198E-1;-1.755275726E-1;-2.415894508E0
4.751505930E0;6.877181530E-1;-4.191074371E-1;-2.084635735E0
4.769813547E0;5.953645706E-2;-1.009532571E0;-1.924964428E0
4.788129465E0;5.772266388E-1;-8.536260128E-1;-1.213971138E0
4.806435923E0;1.383869886E0;-5.539181232E-1;-8.875942230E-1
4.824755197E0;2.099593401E0;-5.788370371E-1;-8.120765686E-1
4.843065440E0;2.143996954E0;-4.321889877E-1;-1.051096916E0
4.861378916E0;1.555880785E0;-5.267212391E-1;-1.393356323E0
4.879694102E0;9.366762638E-1;-7.863843441E-1;-1.615241051E0
4.898004465E0;7.364072800E-1;-7.699927092E-1;-1.833763599E0
4.916315439E0;1.201374531E0;-6.825041771E-1;-1.661311150E0
4.934626780E0;1.580479383E0;-6.913242340E-1;-1.467450142E0
4.952940256E0;1.616564274E0;-6.644669771E-1;-1.620306015E0
4.971253427E0;1.766797543E0;-7.846554518E-1;-1.733363152E0
4.989564646E0;1.797168255E0;-7.917561531E-1;-1.827125549E0
5.007877146E0;1.580601692E0;-7.573269606E-1;-2.214602947E0
5.026189218E0;1.322934866E0;-6.885809898E-1;-2.745298386E0
5.044502939E0;1.432194471E0;-3.858253956E-1;-3.225640297E0
5.062815439E0;1.111079693E0;-5.770052671E-1;-3.347111702E0
5.081126169E0;1.989672184E-1;-1.195726871E0;-3.290783405E0
5.099438730E0;-1.266002655E-4;-1.164679766E0;-4.318478107E0
5.117751963E0;-5.399036407E-2;-1.380145311E0;-4.008208275E0
5.136066172E0;8.152642250E-1;-1.151135445E0;-4.339625359E0
5.154361949E0;4.173369408E-1;-1.636735201E0;-5.075159073E0
5.172675913E0;-8.436322212E-1;-2.962822437E0;-3.541831017E0
5.191000986E0;-4.608492851E-1;-3.517110586E0;-3.382890463E0
5.209309641E0;1.273882389E0;-3.080669641E0;-1.659270287E0
5.227624704E0;2.330610275E0;-2.961016178E0;-1.251220226E0
5.245937021E0;2.481810570E0;-2.273574352E0;-1.628649712E0
5.264251719E0;2.765195847E0;-2.407928467E0;-2.045535088E0
5.282561533E0;3.923099518E0;-1.678325176E0;-1.716231585E0
5.300873728E0;3.089195728E0;-1.567021370E0;-1.291519642E0
5.319181406E0;1.667120457E0;-2.275854588E0;-8.974223137E-1
5.337502329E0;1.769589424E0;7.384145260E-1;-2.018807173E0
5.355810800E0;2.375607491E-1;-1.851413727E0;-2.403065681E0
5.374122080E0;-8.351173401E-1;-2.990555763E0;-3.320242882E0
5.392420847E0;-1.145161629E0;-2.180935860E0;-2.731418848E0
5.410737741E0;-1.049059868E0;-1.880614281E0;-2.471301079E0
5.429048960E0;2.624511719E-1;-1.028440714E0;-2.941543579E0
5.447364145E0;2.350502968E0;1.473140717E-1;-3.015211582E0
5.465673593E0;2.788789749E0;-2.818589211E-1;-2.718920708E0
5.483987925E0;2.042767525E0;-1.208790064E0;-1.287259579E0
5.502298956E0;1.490386009E0;-1.589737415E0;-1.155052423E0
5.520610788E0;6.433420181E-1;-1.462110043E0;-2.507876158E0
5.538922922E0;6.945152283E-1;-7.362983227E-1;-3.443029165E0
5.557236460E0;1.038537025E0;-3.139741421E-1;-3.496384621E0
5.575546395E0;1.132946968E0;-1.042633057E-1;-3.387770414E0
5.593859628E0;9.388189316E-1;3.798580170E-2;-2.484427929E0
5.612174143E0;7.299900055E-1;-1.106506348E0;-1.851434231E0
5.630496836E0;1.404102325E0;-1.837681770E0;-9.803138971E-1
5.648807383E0;1.460931778E0;-1.894796371E0;-6.850450039E-1
5.667119638E0;-3.075189590E-1;-2.154648781E0;-7.672271729E-1
5.685433359E0;-8.407893181E-1;-1.724767208E0;-3.591911793E-1
5.703746775E0;-4.350700378E-1;-1.609195709E0;4.845039845E-1
5.722056650E0;-3.145704269E-1;-1.666077614E0;1.039022923E0
5.740368967E0;-3.416223526E-1;-1.238596916E0;1.455654860E0
5.758681162E0;-1.839923859E-1;-1.089523315E0;3.774170876E-1
5.776994699E0;-1.660003662E-1;-6.365807056E-1;-1.015035152E0
5.795302256E0;1.389236450E-1;-4.889578819E-1;-2.166234255E0
5.813618174E0;-5.681152344E-1;-6.493270397E-1;-3.332431078E0
5.831930796E0;-2.623428822E0;-1.139317513E0;-4.183956146E0
5.850243662E0;-2.944135189E0;-1.737441778E0;-4.394530296E0
5.868555246E0;-2.665436745E0;-1.763677835E0;-3.811831951E0
5.886865183E0;-1.786679268E0;-1.178280115E0;-3.078278303E0
5.905163767E0;-7.078456879E-1;-8.464968204E-1;-2.410303593E0
5.923492990E0;-6.182384491E-1;-9.172134399E-1;-2.129108667E0
5.941804270E0;-2.002238274E0;-1.363484383E0;-2.432829857E0
5.960116709E0;-2.401050568E0;-2.191113710E0;-2.747412682E0
5.978428781E0;-1.825506210E0;-2.313941717E0;-2.582554579E0
5.996742136E0;-7.527847290E-1;-1.604820490E0;-2.830977917E0
6.015052256E0;-2.514629364E-1;-3.686873913E0;-1.131058931E0
6.033365427E0;6.871719360E-1;-4.396857262E0;-6.178784370E-1
6.051677805E0;-8.349180222E-1;-4.707309723E0;-2.191191435E0
6.069991220E0;-1.330718517E0;-3.245424032E0;-2.837150097E0
6.088297556E0;-1.640129089E-2;-2.354446650E0;-2.843111277E0
6.106614756E0;2.150410652E0;-2.536332130E0;-8.695113659E-1
6.124924082E0;1.901107788E0;-3.497225761E0;-9.132555723E-1
6.143239268E0;3.502374649E0;-4.306543827E0;-2.188719988E0
6.161551767E0;2.801413536E0;-3.039526701E0;-1.755700946E0
6.179863779E0;2.991069794E0;1.279700279E0;8.131504059E-3
6.198176523E0;-7.482843399E-1;-1.977826118E0;-1.364279628E0
6.216486643E0;-4.843921661E0;-2.525845051E0;-2.076781988E0
6.234800730E0;-6.935314178E0;-2.622792006E0;-2.652583361E0
6.253112010E0;-6.179512024E0;-1.940376878E0;-3.253375769E0
6.271425486E0;-5.143824577E0;-1.363872170E0;-3.723156929E0
6.289738535E0;-3.961108208E0;-9.571475983E-1;-3.619045258E0
6.308049814E0;-1.694592953E0;-1.323148251E0;-3.473211288E0
6.326359507E0;1.124757767E0;-1.484250546E0;-2.788414240E0
6.344675730E0;2.811839104E0;-1.645525932E0;-1.772368789E0
6.362987437E0;3.572884560E0;-2.474436522E0;-1.019870043E0
6.381299021E0;2.240402222E0;-2.733192921E0;1.293069601E0
6.399614512E0;-1.288576126E-1;-2.571420670E0;2.576808214E0
6.417923593E0;-2.334308624E-1;-1.763585806E0;-8.326282501E-1
6.436237070E0;-1.915908813E0;-7.264838219E-1;-1.729434013E0
6.454548349E0;-2.394060612E0;-1.309397459E0;-2.262144566E0
6.472861826E0;-1.603208065E0;-2.792277336E0;-2.793145180E0
6.491172617E0;-1.495594978E0;-2.747411728E0;-1.619236112E0
6.509486277E0;-6.363945007E-1;-2.489519119E0;-1.009072661E0
6.527786387E0;4.050827026E-1;-1.711234570E0;-9.332865477E-1
6.546101877E0;-7.919697762E-1;-1.430576324E0;-4.294705391E-1
6.564413096E0;-1.751967907E0;-1.506086826E0;-1.618247271E0
6.582735361E0;-1.435141087E0;-1.123955250E0;-2.966137409E0
6.601046640E0;-1.668106556E0;-1.102067947E0;-3.234304905E0
6.619358652E0;-1.664011955E0;-1.735596657E0;-2.674293995E0
6.637671152E0;-8.855242729E-1;-2.776953220E0;-2.158013344E0
6.655978648E0;-6.246604919E-1;-3.391170025E0;-1.735729814E0
6.674295908E0;-1.628751755E0;-2.345956802E0;-1.717696667E0
6.692607981E0;-1.582403660E0;1.889295578E-1;-1.995518446E0
6.710920481E0;-1.845800877E0;5.910620689E-1;-1.800215006E0
6.729229013E0;-1.839183807E0;-8.745193481E-2;-1.604240537E0
6.747544931E0;-8.958559036E-1;-8.612060547E-1;-1.861265898E0
6.765857187E0;9.453620911E-1;-1.400842667E-1;-2.833710432E0
6.784168222E0;-5.457687378E-1;-1.881525517E0;-1.588487148E0
6.802482920E0;-1.096752167E0;-1.499966621E0;-1.102209091E-3
6.820793894E0;-1.066133022E0;-1.103559971E0;-1.012502670E0
6.839106211E0;-1.438390732E0;-1.175128937E0;-2.481173277E0
6.857414133E0;-1.363696098E0;-2.774592400E0;-1.974713802E0
6.875731943E0;-5.539388657E-1;-3.811179638E0;-1.680232763E0
6.894043222E0;8.908138275E-1;-2.820717335E0;-9.182269573E-1
6.912360483E0;4.146318436E-1;-2.507465839E0;-7.867313623E-1
6.930667551E0;-2.222218037E0;-3.343266964E0;-1.544370651E0
6.948981150E0;-2.803029537E0;-2.401688576E0;-1.931533933E0
6.967292490E0;-1.582620621E0;-8.437728882E-1;-1.638418436E0
6.985605479E0;-6.994194984E-1;-8.665609360E-1;-1.796087146E0
7.003916758E0;-6.246104240E-1;-1.163900852E0;-1.663503289E0
7.022231638E0;-1.247417450E0;-1.853787422E0;-1.739439487E0
7.040541513E0;-3.194891930E0;-2.336960793E0;-1.266241193E0
7.058853769E0;-1.558253288E0;-1.185133934E0;-1.369000912E0
7.077166025E0;-1.420840740E0;-4.517774582E-1;-1.395779848E0
7.095479563E0;-1.452824593E0;3.269925117E-1;-1.813630581E0
7.113791941E0;-1.584430695E0;8.419747353E-1;-1.485462666E0
7.132105723E0;-2.322564125E0;-3.077936172E-2;-1.683913827E0
7.150415049E0;-3.100862503E0;-3.892316818E-1;-1.987995505E0
7.168696299E0;-3.800926685E0;-3.951330185E-1;-1.703181505E0
7.187039743E0;-4.453239441E0;-3.559241295E-1;-2.082155704E0
7.205348093E0;-3.844481945E0;-1.310753822E0;-2.630600929E0
7.223664316E0;-1.414433002E0;-1.743390083E0;-2.472450018E0
7.241977549E0;6.806330681E-1;-3.744937897E0;-2.141793728E0
7.260288889E0;1.953899860E0;-4.198348045E0;-6.617874503E-1
7.278587595E0;2.237954617E0;-1.932225227E0;-2.138183266E-1
7.296902292E0;-2.703008652E-1;-2.322158813E-1;-6.346934438E-1
7.315216501E0;-2.083625317E0;-5.504245758E-1;-1.438257813E0
7.333527048E0;-1.803439617E0;-1.521139145E0;-2.412839651E0
7.351838694E0;-1.243600845E0;-1.091714859E0;-2.053816795E0
7.370150461E0;-2.167546511E0;3.478021622E-1;-1.045453310E0
7.388464853E0;-3.052824497E0;8.114824295E-1;-1.194469213E0
7.406776072E0;-2.551789761E0;2.135203362E0;-1.548263431E0
7.425088327E0;-2.023330450E0;3.579246044E0;-2.063666821E0
7.443400278E0;-2.254566193E0;4.080471039E0;-1.190176010E0
7.461724802E0;-1.998292446E0;2.579060078E0;-1.401037931E0
7.480036142E0;-1.229614735E0;-4.306254387E0;-2.767157555E0
7.498343759E0;-1.414576769E0;-8.619984627E0;-3.010046482E0
7.516661142E0;8.392679691E-1;-4.701217651E0;-1.116314173E0
7.534974131E0;9.615023136E-1;5.118808746E-1;1.510672569E-1
7.553284190E0;-1.678899407E0;1.418458939E0;-2.678493559E-1
7.571597727E0;-3.404344559E0;7.798156738E-1;-9.387477636E-1
7.589909983E0;-2.840705633E0;2.863636017E-1;-8.905777931E-1
7.608223398E0;-1.791744947E0;3.529443741E-1;-1.108096600E0
7.626534616E0;-1.530847549E0;3.672666550E-1;-1.344905972E0
7.644846994E0;-1.510247946E0;2.848682404E-1;-1.380298495E0
7.663159250E0;-4.864728451E-2;-1.447805405E0;-1.673462868E0
7.681472666E0;-4.837745667E0;-1.180747986E0;4.274736047E-1
7.699783701E0;-6.973027229E0;1.402753830E0;-8.174345642E-2
7.718095957E0;-1.904532790E0;1.342927933E0;-1.888599515E0
7.736408090E0;-1.301270247E0;4.150810242E-1;-7.623195052E-1
7.754722849E0;-1.042666674E0;8.213710785E-2;-5.491556525E-1
7.773031809E0;-1.679288149E0;4.262695312E-1;-8.799531460E-1
7.791345041E0;-2.156491280E0;8.612461090E-1;-1.101928473E0
7.809656992E0;-2.359388828E0;6.718587875E-1;-9.704918861E-1
7.827970713E0;-2.199690342E0;4.058313370E-1;-9.015900493E-1
7.846282297E0;-2.023826361E0;4.297389984E-1;-9.581017494E-1
7.864594187E0;-1.934174180E0;5.175132751E-1;-1.052118421E0
7.882907725E0;-1.783206820E0;5.826025009E-1;-9.970554113E-1
7.901219675E0;-1.880709887E0;5.379896164E-1;-9.981942773E-1
7.919530771E0;-2.011941910E0;4.486885071E-1;-1.017736316E0
7.937838510E0;-1.884781718E0;5.572166443E-1;-1.120649099E0
7.956155527E0;-1.786843061E0;6.318550110E-1;-1.098005652E0
7.974469248E0;-1.772148609E0;5.599193573E-1;-9.927994609E-1
7.992780039E0;-1.794134974E0;4.866638184E-1;-9.556018710E-1
8.011092539E0;-1.889282823E0;4.743928909E-1;-9.420126677E-1
8.029404550E0;-1.926134109E0;4.480094910E-1;-9.478993416E-1
8.047718027E0;-1.977960825E0;5.508680344E-1;-9.589161277E-1
8.066023265E0;-1.992814660E0;5.862998962E-1;-9.869456887E-1
8.084341562E0;-1.886783719E0;4.522256851E-1;-9.379319549E-1
8.102653818E0;-1.640473127E0;4.699249268E-1;-8.911904097E-1
8.120964120E0;-1.733259559E0;5.339727402E-1;-6.581053138E-1
8.139278147E0;-1.858735681E0;3.594045639E-1;-6.833344102E-1
8.157590647E0;-1.834821582E0;4.952640533E-1;-5.969999433E-1
8.175903086E0;-1.751739025E0;6.277933121E-1;-6.145341992E-1
8.194215159E0;-1.719371080E0;4.204912186E-1;-8.513370156E-1
8.212527353E0;-1.436185479E0;5.589580536E-1;-8.308681250E-1
8.230839609E0;-1.457333088E0;7.215929031E-1;-7.048149109E-1
8.249147898E0;-1.421950579E0;6.686143875E-1;-7.556604147E-1
8.267465342E0;-1.558652639E0;4.402847290E-1;-6.455941200E-1
8.285776621E0;-1.544542670E0;5.339069366E-1;-6.626158953E-1
8.304088877E0;-1.684729218E0;5.342235565E-1;-8.459857106E-1
8.322401133E0;-1.845936894E0;3.270759583E-1;-8.500037789E-1
8.340714792E0;-1.596277237E0;5.268745422E-1;-8.578942418E-1
8.359025644E0;-1.455720544E0;7.246303558E-1;-7.957270145E-1
8.377337900E0;-1.931531668E0;6.009082794E-1;-8.298280239E-1
8.395651621E0;-1.810698509E0;7.424077988E-1;-9.443352222E-1
8.413963816E0;-1.619567394E0;5.351142883E-1;-9.203053713E-1
8.432275889E0;-1.574315786E0;3.207511902E-1;-6.750317812E-1
8.450586985E0;-1.562959671E0;4.617156982E-1;-6.448286772E-1
8.468899424E0;-1.680556297E0;7.105894089E-1;-8.020312786E-1
8.487210032E0;-1.970792174E0;6.163921356E-1;-7.871872783E-1
8.505523691E0;-2.037301064E0;4.375448227E-1;-1.145394444E0
8.523837351E0;-1.766633034E0;5.536413193E-1;-1.239020824E0
8.542149302E0;-1.860040426E0;3.311595917E-1;-9.314600229E-1
8.560462168E0;-2.015905142E0;4.751901627E-1;-2.581156790E-1
8.578768320E0;-1.959143400E0;7.375516891E-1;-5.870102644E-1
8.597085215E0;-1.706221342E0;6.715726852E-1;-8.167927265E-1
8.615393320E0;-1.637386084E0;1.095925331E0;-5.436360836E-1
8.633711008E0;-1.779215574E0;1.267396927E0;-5.996516943E-1
8.652022043E0;-1.719388247E0;1.068139076E0;-8.049221039E-1
8.670331858E0;-1.718181849E0;4.551153183E-1;-4.007751346E-1
8.688636484E0;-1.090213537E0;5.136690140E-1;-9.520567656E-1
8.706948923E0;-4.366765022E-1;1.067723274E0;-6.957161427E-1
8.725267771E0;-7.082674503E-1;9.744272232E-1;-9.620443583E-1
8.743583689E0;-2.572557926E-1;6.786680222E-1;-6.976460814E-1
8.761895761E0;-1.206528902E0;6.463718414E-1;-5.054494143E-1
8.780209238E0;-3.403093815E0;2.117633820E-1;-1.399768829E0
8.798520212E0;-3.657584429E0;-3.140926361E-2;-1.191000342E0
8.816836740E0;-2.276892900E0;9.028902054E-1;2.954030037E-2
8.835143808E0;-1.822098255E0;1.132035255E0;-1.584798098E-1
8.853458261E0;-1.799573898E0;1.124788284E0;-5.198553801E-1
8.871769541E0;-2.884504080E0;7.773876190E-1;-8.727723956E-1
8.890066905E0;-1.664854050E0;7.784233093E-1;-6.654531956E-1
8.908394052E0;-1.060901642E0;5.128231049E-1;-7.430332899E-1
8.926707529E0;-1.310930729E0;2.959203720E-1;-1.073043823E0
8.945018564E0;-1.458727837E0;4.350919724E-1;-1.270488024E0
8.963329660E0;-1.654758930E0;9.560852051E-1;-4.079042077E-1
8.981643076E0;-1.783089161E0;7.561349869E-1;-1.142307043E0
8.999956491E0;-1.303481579E0;9.966020584E-1;-7.966338396E-1
9.018267832E0;-1.494446993E0;9.476947784E-1;-3.155484796E-1
9.036579843E0;-9.735016823E-1;2.487726212E-1;-1.067287564E0
9.054892099E0;-1.315225601E0;2.758417130E-1;-6.004691124E-2
9.073205576E0;-1.961737156E0;5.585899353E-1;-1.053126812E0
9.091516855E0;-2.580743551E0;9.664497375E-1;-9.526145458E-1
9.109815440E0;-1.890412331E0;1.803994656E0;2.334076762E-1
9.128130137E0;-2.463101387E0;4.335947037E-1;-1.680684805E0
9.146443430E0;-1.388226509E0;7.009382248E-1;-1.538892984E0
9.164754282E0;-1.451848745E0;6.214551926E-1;-3.730324507E-1
9.183067148E0;-1.149118900E0;7.987880707E-1;-2.145059109E-1
9.201379648E0;-1.387279510E0;6.849060059E-1;-7.978646755E-1
9.219692880E0;-1.933423519E0;7.791786194E-1;-1.178014159E0
9.238004648E0;-1.627826929E0;8.237428665E-1;-8.728917837E-1
9.256315927E0;-9.143180847E-1;5.832471848E-1;-7.032973766E-1
9.274628916E0;-1.209700823E0;2.987985611E-1;-3.524795771E-1
9.292942636E0;-1.013689041E0;7.889318466E-1;-5.511903763E-2
9.311253000E0;-1.542340279E0;6.621265411E-1;-8.136627674E-1
9.329564524E0;-6.418690681E-1;1.384647369E0;-3.789668083E-1
9.347883860E0;-1.162669182E0;4.312410355E-1;-7.911783457E-1
9.366201914E0;7.889890671E-2;1.065025330E-1;4.232112169E-1
9.384513132E0;-9.538755417E-1;2.188863754E-1;-1.202016830E0
9.402825449E0;-3.281784058E-1;4.290571213E-1;-1.786465764E0
9.421137644E0;3.811144829E-2;-5.536727905E-1;-1.768808126E0
9.439451242E0;3.612120152E-1;-3.243207932E-1;-1.806634784E0
9.457762278E0;-4.650523663E-1;6.685256958E-4;-1.446980476E0
9.476068431E0;-1.019977808E0;9.779005051E-1;-8.007208109E-1
9.494386911E0;-1.698114514E0;1.256378174E0;-7.519017458E-1
9.512700205E0;-2.678108454E0;1.231210709E0;-8.704472780E-1
9.531011240E0;-3.548602819E0;1.590472221E0;-1.030312896E0
9.549323740E0;-6.730248451E0;1.408774376E0;-5.197153091E-1
9.567635935E0;-5.377352715E0;1.248545647E0;-2.189106941E-1
9.585949228E0;-2.647655725E0;8.132200241E-1;-9.851331711E-1
9.604259288E0;-2.101759195E0;4.624214172E-1;-1.229786992E0
9.622572763E0;-1.754310131E0;4.540157318E-2;-4.064198732E-1
9.640884958E0;-2.023722172E0;6.736183167E-1;-6.946814060E-2
9.659198923E0;-1.900908113E0;-4.143800735E-1;-2.376371861E0
9.677509531E0;-4.745987654E-1;-9.626073837E-1;-6.744859219E-1
9.695821726E0;-3.773041666E-1;-7.749280930E-1;-4.743695259E-1
9.714134287E0;-1.205992460E0;-9.909400940E-1;-1.297965646E0
9.732435800E0;-4.270907044E-1;5.092954636E-1;-1.858029723E0
9.750758615E0;-1.094431877E0;7.118473053E-1;1.941462755E-1
9.769057200E0;-1.567696929E0;5.773801804E-1;-8.106515408E-1
9.787371836E0;-2.406408787E0;6.608266830E-1;-5.665674210E-1
9.805685495E0;-2.562831163E0;1.962623596E-1;2.877323627E-1
9.824010630E0;-2.127761364E0;-1.783685684E-1;-5.769407749E-1
9.842320200E0;-3.763529778E0;3.154668808E-1;-2.510254383E-1
9.860632334E0;-4.079246998E0;1.220636368E-1;3.497385979E-2
9.878945810E0;-3.238873005E0;1.578998566E-2;-6.621820927E-1
9.897256906E0;-1.180746555E0;6.637868881E-1;-7.991864681E-1
9.915572336E0;-1.149803400E0;7.758045197E-2;-1.337995052E0
9.933882517E0;-2.813570976E0;-1.972627640E-1;-7.516624928E-1
9.952196665E0;-3.830932379E0;9.103212357E-1;-4.163997173E-1
9.970502696E0;-1.958005905E0;1.986675262E-1;-6.435422897E-1
9.988813730E0;1.502727866E-1;4.452285767E-1;-4.920129776E-1
1.000712580E1;3.496906161E-1;5.562219620E-1;2.212638855E-1
1.002544386E1;-9.371587634E-1;-7.055187225E-2;-3.203260899E-1
1.004375483E1;-1.887352705E0;-3.801765442E-1;-6.325888634E-1
1.006206721E1;-2.105305672E0;2.041959763E-1;-5.664899349E-1
1.008037965E1;-1.150939822E0;1.283348083E0;-2.961270809E-1
1.009869312E1;-6.047142744E-1;1.503998280E0;-2.044361591E0
1.011699830E1;-5.361819267E-1;1.291285515E0;-1.671636581E0
1.013531275E1;-1.428366423E0;-5.061292648E-1;-5.605502129E-1
1.015362892E1;-1.180573821E0;-3.980255127E-1;6.201720238E-2
1.017194196E1;-8.288998604E-1;4.411964417E-1;-8.486979008E-1
1.019025312E1;1.027160883E0;1.162862778E-1;-3.186414003E0
1.020856544E1;-8.438607454E-1;-1.613341331E0;-2.693215370E0
1.022687751E1;-7.662987709E-2;-1.261990547E0;-1.485268116E0
1.024518977E1;-9.775280952E-2;-1.707001686E0;-1.189158320E0
1.026350221E1;-1.404507160E0;-3.128906250E0;-2.088115215E0
1.028181446E1;-1.018765688E0;-3.216811180E0;-2.171216011E0
1.030012666E1;2.136278152E-2;-2.687248230E0;-1.475725055E0
1.031844050E1;3.066515923E-1;-2.449032784E0;-8.901215792E-1
1.033675154E1;4.163737297E-1;-3.199549675E0;-6.543039083E-1
1.035506373E1;-1.462517738E0;-3.915583611E0;-9.666585922E-1
1.037337477E1;-3.785148144E0;-2.277011871E0;-1.923394799E0
1.039168928E1;-4.653042316E0;-1.991644859E0;-3.643216610E0
1.040998878E1;-4.097695351E0;-8.237075806E-1;-3.078281879E0
1.042831245E1;-4.410977840E0;-4.114306450E0;-1.212171435E0
1.044662507E1;-3.414271832E0;-1.466183662E0;-8.819591999E-1
1.046493818E1;-2.975962639E0;-1.828769684E0;-1.634473801E0
1.048324952E1;-2.299317837E0;-5.249762535E-1;-2.395193577E0
1.050156178E1;-1.498029232E0;-1.635804653E0;-1.867213726E0
1.051987397E1;-1.156718731E0;-1.576467991E0;-7.762358189E-1
1.053818727E1;-1.398154736E0;-8.276367188E-2;2.880845666E-1
1.055649854E1;1.917548180E-1;2.593216896E-1;-1.217774630E0
1.057481196E1;-6.072430611E-1;-2.752804756E-1;-2.539083481E0
1.059312196E1;4.665799141E-1;5.130815506E-1;-2.597239971E0
1.061143641E1;1.840775490E0;7.125716209E-1;-2.964135408E0
1.062974787E1;1.039958000E0;8.143444061E-1;-3.418365002E0
1.064806007E1;1.812621593E0;1.755978584E0;-4.635082245E0
1.066637214E1;2.654861927E0;2.586493492E0;-4.323079586E0
1.068468580E1;2.637006760E0;2.924236059E0;-3.803443670E0
1.070299714E1;1.615292072E0;1.982849121E0;-3.135060549E0
1.072130885E1;2.173943520E-1;1.251451015E0;-2.606784582E0
1.073962129E1;-4.625368118E-1;6.900768280E-1;-2.422827244E0
1.075792994E1;-8.170166016E-1;6.370081902E-1;-2.566785097E0
1.077624928E1;-1.163461208E0;5.565290451E-1;-2.874669552E0
1.079455812E1;-1.104796886E0;2.498145103E-1;-2.793939114E0
1.081287007E1;-1.037974358E0;-3.800630569E-2;-1.878776550E0
1.083118366E1;-1.179526329E0;-3.271441460E-1;-6.199026108E-1
1.084948292E1;-1.261759996E0;-7.673602104E-1;-1.564049721E-1
1.086780714E1;-1.241596937E0;-3.975124359E-1;-5.156764984E-1
1.088610682E1;-4.492938519E-1;-3.567471504E-1;-1.035984039E0
1.090443257E1;5.709958076E-2;-2.665033340E-1;-9.686174393E-1
1.092274391E1;-1.274762154E-1;-7.329201698E-1;-6.699399948E-1
1.094105616E1;-4.085619450E-1;-1.147976398E0;-4.075126648E-1
1.095935737E1;-2.084960938E-1;-1.411512375E0;-1.587448120E-1
1.097767036E1;2.381083965E-1;-1.304794312E0;-2.538347244E-1
1.099598170E1;8.219993114E-1;-1.034302235E0;-7.185688019E-1
1.101429420E1;9.637691975E-1;-7.801270485E-1;-1.304149151E0
1.103260664E1;9.862377644E-1;-6.889283657E-1;-1.736159325E0
1.105091810E1;1.074343204E0;-8.340942860E-1;-1.816670418E0
1.106923011E1;8.172626495E-1;-9.452846050E-1;-1.303539276E0
1.108754273E1;8.068580627E-1;-8.221342564E-1;-1.070382595E0
1.110586921E1;8.203308582E-1;-6.408658028E-1;-1.196393967E0
1.112418000E1;9.075996876E-1;-6.228628159E-1;-1.108283043E0
1.114249250E1;1.060549021E0;-4.517090321E-1;-8.723487854E-1
1.116080348E1;1.052797794E0;-3.570683002E-1;-9.661207199E-1
1.117910432E1;1.003302574E0;-2.067801952E-1;-1.257771969E0
1.119742896E1;7.685580254E-1;-5.478286743E-2;-1.154232979E0
1.121574140E1;5.826551914E-1;-2.914004326E-1;-8.291521072E-1
1.123405262E1;6.067302227E-1;-4.517488480E-1;-6.291217804E-1
1.125235841E1;7.699253559E-1;-6.214575768E-1;-6.396713257E-1
1.127067817E1;1.249590635E0;-5.171880722E-1;-4.188928604E-1
1.128898927E1;1.427200556E0;-3.805773258E-1;-5.862522125E-2
1.130730128E1;1.158489943E0;-4.367432594E-1;-3.034019470E-1
1.132561402E1;6.210637093E-1;-6.493444443E-1;-9.542121887E-1
1.134392842E1;2.116081715E-1;-6.444592476E-1;-1.699273109E0
1.136223915E1;2.699661255E-2;-6.301727295E-1;-2.197789669E0
1.138055079E1;5.144252777E-1;-5.461568832E-1;-1.818514824E0
1.139885841E1;8.125216961E-1;-5.445947647E-1;-1.109194756E0
1.141717640E1;9.849932194E-1;-5.768666267E-1;-1.148975372E0
1.143548762E1;7.389831543E-1;-7.228546143E-1;-1.332572937E0
1.145379835E1;3.946115971E-1;-5.863690376E-1;-1.600158215E0
1.147211201E1;9.305284023E-1;-3.299663067E-1;-1.207117081E0
1.149042555E1;1.450065374E0;-3.280940056E-1;-5.146284103E-1
1.150873634E1;1.305273294E0;-5.909101963E-1;-4.668912888E-1
1.152704206E1;9.059770107E-1;-6.679260731E-1;-9.713697433E-1
1.154534986E1;8.555808067E-1;-6.319627762E-1;-1.368464470E0
1.156367457E1;1.112070322E0;-5.806424618E-1;-1.195903301E0
1.158198554E1;1.329416275E0;-6.519422531E-1;-1.049351692E0
1.160029786E1;1.416453123E0;-7.472574711E-1;-1.004087925E0
1.161861012E1;1.793057680E0;-7.843036652E-1;-1.052276611E0
1.163692335E1;2.218049288E0;-8.031542301E-1;-8.513240814E-1
1.165523396E1;2.175930023E0;-7.980961800E-1;-2.325754166E-1
1.167354694E1;1.860364437E0;-7.536449432E-1;2.740077972E-1
1.169185908E1;1.438321590E0;-6.946732998E-1;1.865720749E-1
1.171016969E1;1.092615843E0;-6.265583038E-1;-2.252283096E-1
1.172848371E1;1.003845692E0;-5.024333000E-1;-4.135055542E-1
1.174679566E1;9.517807961E-1;-4.982354641E-1;-6.481170654E-2
1.176510816E1;1.086636543E0;-5.627393723E-1;1.708345413E-1
1.178342280E1;1.362153530E0;-7.209303379E-1;-3.058719635E-2
1.180173268E1;1.614166975E0;-6.881735325E-1;-6.766986847E-2
1.182004493E1;1.795210838E0;-7.101521492E-1;4.049663544E-1
1.183835719E1;2.273617268E0;-5.594947338E-1;9.382953644E-1
1.185667268E1;2.888058424E0;-1.930270195E-1;1.427671432E0
1.187498200E1;3.246913433E0;1.827847958E-1;1.303493500E0
1.189329389E1;3.459639311E0;6.135725975E-2;9.076499939E-1
1.191160627E1;3.875580311E0;3.242866993E-1;1.709442139E0
1.192992072E1;4.423235416E0;3.781089783E-1;1.805974007E0
1.194823103E1;4.778587818E0;1.757919788E-1;1.016867638E0
1.196654298E1;4.278725624E0;-3.177676201E-1;8.289136887E-1
1.198485639E1;3.122033358E0;-3.124749660E-1;7.339763641E-1
1.200316877E1;2.856752872E0;-2.230899334E-1;-3.990821838E-1
1.202147975E1;2.474096537E0;-8.249630928E-1;-9.238023758E-1
1.203979225E1;2.000321865E0;-8.846965432E-1;-4.319744110E-1
1.205810432E1;1.599864721E0;-8.840923309E-1;-1.760797501E-1
1.207641773E1;1.655892611E0;-7.449151278E-1;-1.084928513E-1
1.209472779E1;1.088379860E0;-9.087392092E-1;-3.349828720E-1
1.211304042E1;1.066956520E-1;-1.087244391E0;-7.705736160E-1
1.213135328E1;-4.130768776E-1;-1.141168118E0;-3.028306961E-1
1.214966676E1;-4.730015993E-1;-9.556798935E-1;2.188558578E-1
1.216797309E1;-5.149377584E-1;-7.730190754E-1;-1.442928314E-1
1.218627918E1;-3.474853039E-1;-6.665572524E-1;-7.490320206E-1
1.220459168E1;-4.770777225E-1;-5.171167254E-1;-1.105947495E0
1.222290473E1;-1.060428143E0;-7.289162278E-1;-9.393815994E-1
1.224121876E1;-6.207711697E-1;-5.683865547E-1;-8.417959213E-1
1.225953932E1;-1.487505436E-2;-5.849254131E-2;-9.345121384E-1
1.227785157E1;1.840826273E-1;4.862797260E-2;-8.469686508E-1
1.229616004E1;-4.389721155E-1;-5.208313465E-2;-7.417602539E-1
1.231447602E1;-4.158939123E-1;8.612024784E-2;-9.796409607E-1
1.233278834E1;6.654514074E-1;3.840105534E-1;-7.376956940E-1
1.235110053E1;8.655092716E-1;2.421320677E-1;-5.735521317E-1
1.236940156E1;9.481775761E-1;2.244522572E-1;-9.992132187E-1
1.238772517E1;1.601315498E0;5.703502893E-1;-8.465442657E-1
1.240603742E1;1.244522810E0;7.223926783E-1;-5.907001495E-1
1.242435078E1;2.605857849E-1;8.075675964E-1;-9.935798645E-1
1.244266310E1;-3.545234203E-1;1.096608162E0;-1.255290031E0
1.246097389E1;-7.646412849E-1;1.001567841E0;-8.224391937E-1
1.247928864E1;-3.508970737E-1;9.975793362E-1;-5.963478088E-1
1.249759895E1;4.790520668E-2;9.760136604E-1;-6.369409561E-1
1.251591188E1;2.696413994E-1;8.696310520E-1;-5.844449997E-1
1.253422315E1;7.670419216E-1;8.862540722E-1;-6.387691498E-1
1.255253376E1;1.076629639E0;8.202152252E-1;-7.904205322E-1
1.257084767E1;1.114611864E0;6.775846481E-1;-8.886585236E-1
1.258916114E1;1.084534883E0;5.183964968E-1;-8.249645233E-1
1.260746925E1;6.397371292E-1;3.311871290E-1;-6.230478287E-1
1.262578565E1;2.719278336E-1;3.186982870E-1;-8.222551346E-1
1.264409687E1;4.112451077E-1;3.581702709E-1;-1.226496696E0
1.266241023E1;9.409182072E-1;4.689230919E-1;-1.349274635E0
1.268072145E1;1.023771286E0;5.101505518E-1;-1.433423996E0
1.269903352E1;6.052880287E-1;5.120011568E-1;-1.505304337E0
1.271734620E1;6.885442734E-1;5.502862930E-1;-1.655273438E0
1.273565345E1;7.436835766E-1;6.783714294E-1;-1.489441395E0
1.275397047E1;6.318347454E-1;7.868837118E-1;-1.385768414E0
1.277228376E1;1.233989954E0;9.886857271E-1;-1.264516830E0
1.279059498E1;1.150889635E0;1.029403806E0;-9.321041107E-1
1.280890351E1;7.439880371E-1;1.029011250E0;-8.790435791E-1
1.282721925E1;8.555636406E-1;1.125545382E0;-8.919639587E-1
1.284552131E1;1.097943306E0;1.197812557E0;-7.921562195E-1
1.286383381E1;1.073356867E0;1.321962118E0;-9.253273010E-1
1.288214680E1;1.007520676E0;1.425939441E0;-1.166542053E0
1.290045796E1;1.052190304E0;1.499926090E0;-1.308218002E0
1.291876936E1;9.873597622E-1;1.485871315E0;-1.221575737E0
1.293708222E1;6.143078804E-1;1.508546591E0;-1.142704010E0
1.295539552E1;3.170692921E-1;1.610350847E0;-1.319391727E0
1.297370735E1;3.871495724E-1;1.641302228E0;-1.332418442E0
1.299201862E1;3.064131737E-1;1.687890530E0;-9.952707291E-1
1.301033003E1;4.856491089E-1;1.775151491E0;-9.590539932E-1
1.302864399E1;2.434282303E-1;1.830264807E0;-1.095722198E0
1.304695405E1;1.879663467E-1;1.851336002E0;-1.067241669E0
1.306526856E1;1.340527534E-1;1.898679376E0;-1.000886440E0
1.308357624E1;4.146742821E-1;2.038635731E0;-1.112726212E0
1.310190705E1;5.376372337E-1;2.057703018E0;-1.006143570E0
1.312021565E1;7.975950241E-1;2.007692814E0;-8.455381393E-1
1.313852790E1;1.099668264E0;2.001522064E0;-6.440744400E-1
1.315684016E1;1.047995090E0;1.962459207E0;-3.682785034E-1
1.317515357E1;1.293779135E0;1.967964530E0;-3.296403885E-1
1.319346589E1;1.114646912E0;1.844202876E0;-4.945106506E-1
1.321177406E1;7.448954582E-1;1.934515357E0;-1.373476982E0
1.323008619E1;1.176648140E0;2.106056452E0;-1.685454369E0
1.324840248E1;1.403342247E0;1.563161492E0;1.702499390E-2
1.326671357E1;8.795368671E-1;8.069448471E-1;1.985220909E0
1.328502595E1;3.238670826E-1;3.657461405E-1;2.459797859E0
1.330333814E1;-1.973609924E-1;3.616919518E-1;1.776194572E0
1.332165162E1;-5.790483952E-1;6.125743389E-1;8.790016174E-2
1.333996266E1;-9.492444992E-2;9.605635405E-1;-1.605724335E0
1.335827516E1;3.497846127E-1;1.158228397E0;-2.096545696E0
1.337658137E1;9.305648804E-1;9.663292170E-1;-1.332660675E0
1.339490064E1;1.344858408E0;5.837916136E-1;4.368782043E-2
1.341321174E1;7.766120434E-1;2.303862572E-1;6.504735947E-1
1.343152394E1;-4.960060120E-3;5.447554588E-2;4.385242462E-1
1.344983595E1;3.205637932E-1;8.293890953E-2;5.674457550E-2
1.346814967E1;7.285754681E-1;1.848462820E-1;-7.215499878E-3
1.348646070E1;5.691945553E-1;9.370768070E-2;1.404485703E-1
1.350477174E1;6.562192440E-1;1.875710487E-2;5.374202728E-1
1.352308436E1;2.852468491E-1;-3.032898903E-2;7.881546021E-1
1.354139869E1;-5.864293575E-1;1.318973303E-1;2.345943451E-1
1.355970973E1;-9.891812801E-1;4.289798737E-1;-4.648590088E-1
1.357801740E1;-9.781422615E-1;6.541525126E-1;-5.237512589E-1
1.359633424E1;-1.046591997E0;8.364084959E-1;-8.834352493E-1
1.361464778E1;-8.974361420E-1;1.126596093E0;-1.437001228E0
1.363295893E1;-6.932916641E-1;1.247875333E0;-1.501873016E0
1.365127107E1;-6.308600903E-1;1.280535460E0;-1.263846874E0
1.366958326E1;-2.156291008E-1;1.304973364E0;-1.028684616E0
1.368789674E1;5.275249481E-2;1.274983883E0;-7.749700546E-1
1.370620893E1;-9.270811081E-2;1.159580112E0;-8.775081635E-1
1.372452027E1;-4.046502113E-1;9.437440634E-1;-1.020576477E0
1.374283228E1;-8.484563828E-1;4.333254099E-1;-7.369012833E-1
1.376114576E1;-1.513960361E0;-2.061404586E-1;-2.305030823E-1
1.377945686E1;-2.384398699E0;-1.132416010E0;1.068067551E-1
1.379776930E1;-3.260614157E0;-2.182407618E0;2.165222168E-1
1.381608387E1;-4.057222366E0;-3.639690876E0;-7.158470154E-2
1.383439625E1;-3.670028210E0;-4.597631454E0;-2.445030212E-2
1.385270613E1;-4.296494484E0;-4.914472580E0;-1.091479301E0
1.387101808E1;-3.738749027E0;-5.030456066E0;-2.664400101E0
1.388932984E1;-1.493718624E0;-4.467191696E0;-3.016515732E0
1.390764381E1;-2.729868889E-1;-3.936317921E0;-3.542124748E0
1.392595496E1;1.663789749E0;-2.920631647E0;-2.843681812E0
1.394426710E1;3.900270939E0;-1.371969819E0;-9.731965065E-1
1.396258082E1;5.172618389E0;-8.417963982E-3;1.050134182E0
1.398089277E1;6.508890152E0;1.011822581E0;3.486420631E0
1.399920619E1;6.699416161E0;1.740057588E0;4.005775452E0
1.401751161E1;5.728148937E0;2.154514313E0;3.096452713E0
1.403582862E1;4.813135624E0;1.930238128E0;1.618854523E0
1.405414186E1;4.368292809E0;1.793836832E0;-3.141832352E-1
1.407244142E1;3.490504742E0;1.753998518E0;-2.904707909E0
1.409076539E1;2.603612423E0;2.183502197E0;-5.290698051E0
1.410907765E1;1.273024559E0;2.192821026E0;-6.986628532E0
1.412739027E1;6.004018307E0;-1.717126608E0;-1.070823193E1
1.414569612E1;3.287821770E0;-5.082225800E-2;-4.897569656E0
1.416401454E1;4.259428978E0;-1.869124413E0;-3.385708570E0
1.418232667E1;1.305945396E0;-2.082451582E0;-2.909893036E0
1.420063990E1;2.281503677E-1;-1.576048851E0;-2.267048359E0
1.421894923E1;-1.071342468E0;-1.009203672E0;1.847634315E-1
1.423726344E1;-3.228024483E0;-5.088961124E-1;-1.213960171E0
1.425557545E1;-4.058233738E0;-9.579932690E-1;2.470045090E-1
1.427388771E1;-2.496489525E0;-2.951517105E-1;1.644669294E0
1.429220088E1;-1.681302547E0;6.548137665E-1;5.968606472E-1
1.431051216E1;-1.729078293E0;1.327788353E0;-8.657927513E-1
1.432882466E1;-1.002530098E0;2.893821239E0;-1.296184063E0
1.434713777E1;-1.073470116E0;3.876541615E0;-1.250634193E0
1.436544898E1;-3.127288818E-2;3.026291132E0;-1.931399107E0
1.438375001E1;4.170894623E-2;3.092091322E0;-1.026299238E0
1.440207374E1;5.060262680E-1;2.369614124E0;-9.086332321E-1
1.442038722E1;1.158873558E0;1.291205883E0;-3.963015556E0
1.443869825E1;4.694690704E-1;1.300404072E0;-6.805679321E0
1.445701032E1;1.040776253E0;2.197616816E0;-6.471016884E0
1.447532032E1;2.303595543E0;4.803342819E-1;-7.310321331E0
1.449363600E1;3.231836319E0;-4.840745926E-1;-6.332835197E0
1.451194728E1;4.754559517E0;-1.320187569E0;-4.272072792E0
1.453025709E1;7.232534409E0;-1.782881737E0;-1.416401982E0
1.454857154E1;9.243556976E0;-1.632880688E0;7.723753452E-1
1.456688563E1;7.392825127E0;-1.170438766E0;3.404321671E-1
1.458519142E1;1.869343758E0;-1.792602062E0;1.907433748E0
1.460349586E1;-1.049031258E0;-1.882940769E0;2.748502016E0
1.462180976E1;-8.836622238E-1;-9.939322472E-1;1.733409286E0
1.464012410E1;-2.137382984E0;-7.283482552E-1;2.641090393E0
1.465843501E1;-3.492586613E0;-1.178266525E0;3.645251036E0
1.467674622E1;-4.728290081E0;-1.152060986E0;2.979060888E0
1.469505860E1;-6.194279671E0;-1.089482307E0;1.736504078E0
1.471337232E1;-7.371324539E0;-3.384208679E-2;1.259541273E0
1.473168342E1;-5.446417809E0;-1.798132420E0;2.355670452E0
1.475000929E1;-3.152290821E0;-3.493210316E0;6.806380749E-1
1.476831855E1;-1.395091057E0;-2.084463120E0;-1.921110988E0
1.478662605E1;2.457304001E-1;-8.158960342E-1;-4.408280373E0
1.480494337E1;8.862619400E-1;5.927453041E-1;-1.382079482E0
1.482325556E1;3.837747574E-1;1.063953876E0;1.867182493E0
1.484156764E1;-3.749699593E-1;6.657781601E-1;2.375288963E0
1.485988136E1;-1.030110836E0;1.031079292E-1;-2.531296253E0
1.487819215E1;-1.363073349E0;1.213150978E0;-2.670234203E0
1.489650471E1;-1.679903507E0;2.268512726E0;-3.212982118E-1
1.491481574E1;-1.053663254E0;1.486017227E0;-1.996886730E-2
1.493312910E1;8.166618347E-1;-7.998151779E-1;-1.014290333E0
1.495144142E1;3.131196976E0;-1.920548439E0;-2.112200975E0
1.496974201E1;3.217770100E0;-8.119163513E-1;-2.418041229E0
1.498806593E1;4.709215164E-1;1.035517216E0;-1.652421713E0
1.500637916E1;-1.361711264E0;1.250488281E0;-1.011821747E0
1.502469044E1;-1.978330612E-1;2.665328979E-2;-1.835655451E0
1.504300154E1;1.941499710E0;-2.151885986E0;-2.676416874E0
1.506131513E1;2.932512760E0;-2.174094200E0;-2.908629656E0
1.507962824E1;2.465470791E0;-3.960809708E-1;-3.527374744E0
1.509793952E1;4.010212898E0;-8.880939484E-1;-2.050863266E0
1.511625294E1;5.383910179E0;-1.591215134E0;-1.201500297E0
1.513456391E1;5.394942284E0;-1.347282410E0;-1.047692537E0
1.515287745E1;3.872535706E0;-1.855650902E0;-1.223395824E0
1.517118824E1;1.740089417E0;-2.162167549E0;-1.575730801E0
1.518950050E1;1.237134933E-1;-1.580144882E0;-2.191103935E0
1.520781275E1;-4.168872833E-1;-1.498730659E0;-2.326887131E0
1.522612623E1;-1.019670963E0;-1.818667412E0;-8.984345794E-1
1.524443849E1;-2.350713968E0;-6.172218323E-1;4.532132149E-1
1.526274983E1;-2.088813782E0;-1.098811150E0;-1.079647183E0
1.528106196E1;-1.731997013E0;-2.646635056E0;-2.519049883E0
1.529938105E1;-1.320631027E0;-2.118582726E0;-3.416716576E0
1.531768653E1;-1.793145657E0;6.558036804E-2;-1.523851395E0
1.533599885E1;-1.630447388E0;2.107615471E-1;7.594348192E-1
1.535431111E1;-9.882426262E-1;1.571493149E-1;2.436337709E0
1.537262574E1;-2.656579018E-1;2.012565136E0;2.963690758E0
1.539093562E1;-1.055082321E0;2.287207603E0;2.398989201E0
1.540924751E1;-1.172627449E0;2.578296661E0;2.499526501E0
1.542755525E1;-1.980382204E0;1.243316174E0;2.700173378E0
1.544587367E1;-3.281744003E0;1.476715088E0;2.273657322E0
1.546418458E1;-3.212397099E0;1.588335037E0;1.213309765E0
1.548249665E1;-2.253530741E0;2.636595726E0;4.622409344E-1
1.550080909E1;-2.460282803E0;3.843046665E0;2.804309130E-1
1.551912232E1;-2.729902744E0;3.144143105E0;-7.093183994E-1
1.553743373E1;-2.323758364E0;2.023077488E0;-1.887162685E0
1.555573982E1;-5.331668854E-1;-4.345703125E-2;-3.235455751E0
1.557405830E1;1.833294868E0;3.667831421E-2;-4.962785244E0
1.559235963E1;3.508684158E0;-9.235191345E-1;-8.375867844E0
1.561068238E1;5.792791367E0;-4.640301704E0;-7.043226719E0
1.562899464E1;7.014314175E0;-5.900486946E0;-3.394105911E0
1.564730683E1;2.746113300E0;-1.072382927E0;-2.508072853E0
1.566562037E1;-3.559398651E-2;4.470757008E0;-3.265936375E0
1.568393031E1;-5.644869804E-1;4.374233723E0;3.218827724E0
1.570223292E1;-5.108051300E-1;2.170264244E0;1.214874077E1
1.572054658E1;-2.995622158E0;-1.734029770E0;1.019163799E1
1.573885957E1;-3.695777416E0;-1.174437428E1;-1.922433090E1
1.575716993E1;-7.861756325E0;-1.040460110E1;-5.474963188E-1
1.577548408E1;-8.690254211E0;-3.958601952E0;5.483615875E0
1.579380519E1;-4.895308971E0;4.280473709E0;7.101198196E0
1.581211909E1;-8.461737633E-1;2.046801567E0;3.949954271E0
1.583042939E1;4.570527077E0;-4.052498817E0;2.215591431E0
1.584874171E1;7.891650200E0;-4.738380432E0;3.365763664E0
1.586705396E1;3.591388702E0;-1.467799187E0;1.369499803E0
1.588536494E1;-1.029653549E-1;1.888699532E0;-2.057423115E0
1.590367842E1;-3.099200487E0;2.471422672E0;-3.232903004E0
1.592199079E1;-4.605514526E0;1.959161758E0;-2.229738474E0
1.594028901E1;-3.896385193E0;1.854926109E0;-1.133068204E0
1.595861616E1;-1.262436152E0;1.666340828E0;-6.489604712E-4
1.597692780E1;5.959620476E-1;1.484098434E0;3.133252263E-1
1.599524226E1;1.179423571E0;1.526317596E0;-1.593393326E0
1.601355317E1;5.876791477E-1;1.677232742E0;-2.071224213E0
1.603186530E1;3.992760181E-1;1.470636368E0;-8.869390488E-1
1.605017359E1;2.977132797E-2;6.713399887E-1;-7.653027773E-1
1.606848420E1;-3.881330490E-1;4.014644623E-1;-2.496644735E0
1.608680104E1;6.721702814E-1;-3.971176147E-1;-3.956314087E0
1.610511439E1;-3.006711006E-1;6.949748993E-1;-1.545868874E0
1.612342555E1;2.570338249E0;-1.698484421E-1;-5.688245296E-1
1.614173786E1;4.187146187E0;-4.849052429E-2;-1.332043409E0
1.616005006E1;3.041943073E0;-1.038614273E0;-2.406081676E0
1.617836335E1;3.036440372E0;-2.260110855E0;-4.529504776E0
1.619666877E1;2.707178116E0;-3.531351089E0;-6.713405609E0
1.621498713E1;3.627350092E0;-5.168155670E0;-5.362619877E0
1.623329908E1;5.401959419E0;-5.075091362E0;-3.091096878E0
1.625161262E1;5.390099525E0;-4.568861961E0;-3.841978073E0
1.626992359E1;3.151839972E0;-4.008097649E0;-5.399665356E0
1.628822169E1;-3.665876389E-2;-2.780087471E0;-3.265973568E0
1.630653645E1;-4.487838268E0;-4.088998795E0;-3.085824251E0
1.632485133E1;-4.434845448E0;-2.760983467E0;-2.576528192E-1
1.634316151E1;-3.894423723E0;-1.381568909E-1;2.927262306E0
1.636147389E1;-3.472081423E0;8.706331253E-1;3.883947611E0
1.637978645E1;-7.496657372E-1;1.981916428E-1;1.230887532E0
1.639809956E1;2.940613270E0;-2.062564850E0;1.247643232E-1
1.641641108E1;-3.410513401E0;-4.178095818E0;1.478808284E0
1.643472248E1;-8.262406588E-1;-1.418015480E0;2.363173962E0
1.645303541E1;3.198358536E0;4.069919586E-1;1.777966976E0
1.647134858E1;4.494188786E0;1.736345291E-1;4.018928051E0
1.648965852E1;2.917011738E0;1.494371891E0;2.579480171E0
1.650797236E1;-4.441206455E-1;2.631476402E0;2.810610533E0
1.652628431E1;-1.303981304E0;4.348200321E0;4.176130295E0
1.654459815E1;-1.303339481E0;5.624216080E0;4.891542435E0
1.656290840E1;-1.015389442E0;5.935966492E0;4.507672787E0
1.658122108E1;-4.618083239E-1;5.950175762E0;3.127430916E0
1.659953327E1;-2.252540588E-1;6.034677505E0;1.446881294E0
1.661784687E1;4.905150533E-1;6.232889175E0;-1.686453819E-2
1.663615736E1;-1.257105470E0;5.285320282E0;-2.172962427E0
1.665446504E1;-3.674601555E0;4.087409973E-1;-7.940941811E0
1.667278211E1;-1.426848650E0;-9.249468803E0;-1.238560104E1
1.669110664E1;3.387197018E0;-1.044062901E1;-8.555871964E0
1.670941285E1;4.756159306E0;-4.756122589E0;-6.572824001E0
1.672772993E1;1.796960354E0;1.484535217E0;-2.944228649E0
1.674604200E1;1.545899987E0;3.369041920E0;-2.731445789E0
1.676435578E1;1.040975094E0;6.411046982E-1;7.511695385E0
1.678266480E1;-1.620531917E0;-6.619201660E0;1.314199162E1
1.680097901E1;-5.388072491E0;-9.302644730E0;4.644152641E0
1.681929420E1;-5.418710709E0;-7.059431076E-1;-6.899673939E0
1.683759980E1;-4.264549255E0;1.619885445E0;-3.699841499E0
1.685591578E1;-6.300356388E0;3.574236870E0;7.372352123E0
1.687422804E1;-3.641424179E0;-1.150012970E0;8.445470810E0
1.689254005E1;1.393410921E0;4.502868652E-1;4.205742836E0
1.691085377E1;-7.913124561E-2;1.404560089E0;3.871815205E0
1.692914839E1;-2.284626484E0;7.456598282E-1;3.669655323E0
1.694747712E1;-1.384970427E0;7.525672913E-1;-1.852815151E-1
1.696578321E1;6.808458567E-1;4.321002960E-1;-3.367496490E0
1.698410249E1;-6.578869820E-1;-5.079317093E-1;-3.834309101E0
1.700241358E1;-1.228195429E-1;2.325422764E0;-3.226411819E0
1.702072596E1;1.233358622E0;4.814725876E0;-2.339601994E0
1.703903810E1;1.284232259E0;3.191210747E0;-3.690545857E-1
1.705735163E1;2.247787237E0;1.183192253E0;1.476625681E0
1.707566261E1;1.773385763E0;9.140176773E-1;1.492942333E0
1.709397364E1;1.238535047E0;1.662574291E0;2.762347460E-1
1.711228864E1;1.336008787E0;1.428901672E0;-2.066268206E0
1.713060084E1;7.033307552E-1;-3.324394226E-1;-4.720164776E0
1.714891181E1;-1.839859486E-1;-1.490679741E0;-5.726025581E0
1.716722511E1;-1.967906952E-3;-1.050274849E0;-2.947615623E0
1.718553614E1;5.305325985E-1;-1.985617638E0;-1.410128355E0
1.720384962E1;1.016152620E0;-2.642681122E0;-2.746941328E0
1.722216175E1;2.565914154E0;-3.074122429E0;-3.612007141E0
1.724047291E1;3.089907646E0;-5.126196861E0;-6.281811237E0
1.725877918E1;2.127074480E0;-7.294261932E0;-6.076087952E0
1.727709858E1;3.909492016E0;-6.203932762E0;-3.686487198E0
1.729540669E1;4.308283806E0;-4.798676491E0;-2.993921280E0
1.731372218E1;3.385820389E0;-3.123443604E0;-1.992518663E0
1.733203413E1;9.393287897E-1;-1.969739914E0;-3.595224857E0
1.735034791E1;-3.225205898E0;-2.360118866E0;-5.465255737E0
1.736865864E1;-6.263180733E0;-2.392597198E0;7.427274585E-1
1.738697096E1;-7.547643185E0;-1.508515358E0;5.606524467E0
1.740527986E1;-6.780824661E0;-1.805478096E0;1.943688869E0
1.742359815E1;-5.878905296E0;-3.404495239E0;-2.753940105E0
1.744190797E1;-3.585653067E0;-2.828600883E0;-1.698758841E0
1.746021998E1;1.107074976E0;-4.766550064E-1;2.805861950E0
1.747852741E1;4.239653587E0;9.591379166E-1;3.659265041E0
1.749684571E1;5.136094093E0;1.396720886E0;3.286261082E0
1.751515675E1;4.184706211E0;1.024514198E0;3.310629129E0
1.753346784E1;2.405938625E0;5.911970139E-1;3.477376223E0
1.755178126E1;3.900433183E-1;1.660088539E0;3.868605614E0
1.757009205E1;-9.272891879E-1;4.170327663E0;4.969400406E0
1.758840577E1;-4.762665033E-1;6.372295380E0;6.639559746E0
1.760671217E1;-3.330087662E-2;8.418641090E0;6.958829880E0
1.762503028E1;-6.658381224E-1;9.930202484E0;5.355417252E0
1.764334382E1;-1.399691105E0;1.113545418E1;7.692162991E-1
1.766165480E1;-1.681660414E0;1.052585602E1;-9.405059814E-1
1.767996705E1;-1.336013794E0;5.586060524E0;-8.604286194E0
1.769827937E1;-4.407821178E0;-6.981474876E0;-1.397436333E1
1.771659309E1;-2.216975689E0;-1.926012230E1;-8.429193497E0
1.773490266E1;2.429406643E0;-1.775280571E1;-6.470822334E0
1.775321607E1;2.558243990E0;-5.065605164E0;-3.831442595E0
1.777152833E1;1.599276543E0;4.417737484E0;-5.163311005E0
1.778984474E1;3.963551521E0;5.816223621E0;-2.096571922E-1
1.780815278E1;6.391723633E0;1.445471764E0;1.625496864E1
1.782646510E1;7.767357826E-1;-7.654152870E0;1.371049500E1
1.784477735E1;-1.018307781E1;-1.093649292E1;-9.189859390E0
1.786309107E1;-1.400296021E1;-2.995775223E0;-7.828854084E0
1.788140186E1;-8.402915955E0;4.729731560E0;7.666835785E0
1.789971412E1;-4.643312931E0;1.027264977E1;1.144480801E1
1.791802638E1;-5.124052048E0;7.396100044E0;6.011243820E0
1.793634071E1;-2.819727182E0;2.240332603E0;3.786665201E0
1.795465089E1;-1.111636519E0;-2.949198723E0;5.005653381E0
1.797296223E1;-6.350021362E-1;-8.093234062E0;2.246933460E0
1.799127534E1;5.504062653E0;-5.858722687E0;-3.627059221E0
1.800957520E1;8.219756126E0;4.656200409E-1;-4.084651947E0
1.802789991E1;7.492827892E0;3.295052528E0;-2.652106524E0
1.804621223E1;4.836118698E0;3.351910114E0;-1.231968045E0
1.806452558E1;6.715348959E-1;3.226529598E0;-8.600392938E-2
1.808282356E1;-1.429752588E0;2.705571651E0;4.539657235E-1
1.810114887E1;-2.468053341E0;2.563722610E0;-5.007233620E-1
1.811945680E1;-2.377171993E0;2.725635529E0;-9.358112812E-1
1.813777351E1;-6.132216454E-1;1.527728081E0;-1.462215900E0
1.815608692E1;9.898195267E-1;-4.158191681E-1;-2.994716883E0
1.817439686E1;4.040503502E-1;-1.382034302E0;-4.898210526E0
1.819271022E1;-4.206347466E-1;-1.592769623E0;-3.729176521E0
1.821102223E1;7.340800762E-1;-2.949598312E0;-3.398187637E0
1.822933595E1;3.911417723E0;-3.785602570E0;-4.485332012E0
1.824764204E1;7.836258888E0;-5.450646400E0;-4.256642342E0
1.826595899E1;9.651679993E0;-7.573727608E0;-5.893090248E0
1.828427149E1;8.571154594E0;-7.457039833E0;-5.103795528E0
1.830258479E1;4.842000961E0;-5.065803528E0;-1.389239430E0
1.832089570E1;1.005300641E0;-3.362195015E0;-4.194196463E-1
1.833919978E1;-2.664064169E0;-2.887898445E0;-4.441658020E0
1.835752021E1;-6.843949318E0;-3.784433365E0;-5.797894955E0
1.837582820E1;-1.031299973E1;-3.623888969E0;2.931916475E0
1.839414485E1;-1.077421761E1;-2.416667938E0;4.890254021E0
1.841244605E1;-8.457855225E0;-2.753674507E0;-1.809537411E-1
1.843076954E1;-5.788972855E0;-3.146488190E0;-2.977444887E0
1.844908271E1;-2.314313889E0;-1.124814987E0;-4.468560219E-1
1.846739405E1;2.738161802E0;8.335151672E-1;4.031519413E0
1.848570612E1;4.907809258E0;1.539900780E0;4.049380779E0
1.850401948E1;4.116542339E0;1.501572609E0;3.426348925E0
1.852233210E1;2.422557592E0;1.282556534E0;3.575261116E0
1.854064283E1;3.751104474E-1;1.139483452E0;3.950144291E0
1.855895539E1;-1.215836883E0;2.541724682E0;4.599928379E0
1.857726765E1;-1.543929338E0;4.852347851E0;6.478162289E0
1.859558082E1;-1.151781797E0;7.380142689E0;7.822610855E0
1.861389210E1;-1.202098131E0;9.367125511E0;7.244736671E0
1.863220716E1;-1.936612606E0;1.104214478E1;3.800713062E0
1.865051356E1;-3.035948038E0;1.156783295E1;9.211473465E-1
1.866883009E1;-1.244244576E0;1.006571198E1;-4.066096306E0
1.868713789E1;-8.811575174E-1;1.222980499E0;-1.383339500E1
1.870545429E1;-3.824988365E0;-1.396956444E1;-1.396691036E1
1.872376545E1;1.224674821E0;-1.924928665E1;-7.507838249E0
1.874207917E1;3.810710192E0;-1.250300694E1;-4.612272263E0
1.876039015E1;2.129561901E0;5.094251633E-1;-6.631175995E0
1.877869923E1;4.947338104E0;6.225885391E0;2.291756630E0
1.879701448E1;2.866781950E0;7.940441132E0;1.389672852E1
1.881532331E1;-4.055969238E0;-9.281015396E-1;1.823166847E1
1.883363899E1;-1.090684605E1;-1.694355011E1;-9.410538673E0
1.885195118E1;-1.337981319E1;-1.202751732E1;-7.211614132E0
1.887026344E1;-5.989390850E0;1.918201447E0;-5.517237186E-1
1.888857228E1;-5.107946396E0;9.852662086E0;1.344067955E1
1.890688801E1;-3.103392124E0;9.692446709E0;9.907790184E0
1.892520027E1;-3.350361824E0;4.606653214E0;3.990899563E0
1.894351155E1;-3.075468063E0;-1.418685913E0;4.858057022E0
1.896182600E1;-2.862888813E0;-6.836990356E0;3.136695862E0
1.898013722E1;3.673014641E0;-6.429519653E0;-3.342048407E0
1.899844923E1;8.598947525E0;-8.083229065E-1;-5.061429977E0
1.901675575E1;7.498055935E0;3.524441242E0;-3.499820471E0
1.903507514E1;4.456539631E0;4.799793243E0;-1.102817178E0
1.905338880E1;6.041096449E-1;4.068490982E0;4.389173388E-1
1.907169825E1;-1.894540548E0;2.554228783E0;1.689843178E0
1.908999879E1;-2.491957903E0;2.514223099E0;1.082679749E0
1.910832392E1;-1.019473791E0;1.631787300E0;-1.466805100E0
1.912663532E1;1.158743262E0;1.176490784E-1;-3.553632736E0
1.914494837E1;2.024513006E0;-9.470434189E-1;-5.066221237E0
1.916325953E1;2.110895157E0;-7.658309937E-1;-4.582026482E0
1.918157319E1;1.100659847E0;-1.298297882E0;-2.699484348E0
1.919987293E1;4.232103825E-1;-2.936723709E0;-3.595620394E0
1.921818623E1;3.444327831E0;-4.323753357E0;-4.489990711E0
1.923649745E1;6.861027718E0;-6.950961113E0;-4.587553978E0
1.925481172E1;7.610025406E0;-8.116532326E0;-5.056323051E0
1.927312214E1;7.187445641E0;-7.227028847E0;-4.030845642E0
1.929144538E1;4.564681530E0;-5.391085625E0;-1.988258004E0
1.930975758E1;1.304077983E0;-3.659830093E0;-2.163823128E0
1.932807246E1;-2.204993248E0;-3.607647896E0;-6.253837109E0
1.934638197E1;-6.890061378E0;-4.204216003E0;-4.584123611E0
1.936469434E1;-1.028794193E1;-3.250247002E0;5.326891422E0
1.938300575E1;-1.208800220E1;-2.187358856E0;5.397408485E0
1.940132008E1;-1.070849895E1;-3.168023109E0;-2.197017193E0
1.941963111E1;-6.842068672E0;-2.606295586E0;-3.560193539E0
1.943794331E1;-1.949622631E0;2.435569763E-1;1.505154252E0
1.945625227E1;3.906480074E0;1.909015656E0;4.441333294E0
1.947456904E1;5.391535282E0;2.368260384E0;3.866394997E0
1.949288014E1;4.664292336E0;1.703367233E0;3.486036777E0
1.951119239E1;2.795610189E0;1.306292534E0;3.452528238E0
1.952950147E1;4.599947929E-1;1.697558403E0;4.215508938E0
1.954781819E1;-1.680694342E0;3.471961975E0;5.364620686E0
1.956612916E1;-1.950545311E0;5.730435371E0;7.492496014E0
1.958444044E1;-1.756980538E0;7.922908783E0;8.658905983E0
1.960275398E1;-2.478704453E0;1.000554752E1;6.748048306E0
1.962106709E1;-2.391013145E0;1.239866924E1;1.946273327E0
1.963937824E1;-2.456328392E0;1.253940964E1;5.252051353E-1
1.965768586E1;-1.097386599E0;8.086794853E0;-8.615276337E0
1.967600276E1;-2.801721573E0;-7.539798737E0;-2.108954239E1
1.969431642E1;-2.471341610E0;-2.059933472E1;-8.092506409E0
1.971262733E1;3.447160244E0;-1.759966087E1;-6.298767090E0
1.973093940E1;3.186302185E0;-3.843540192E0;-7.480131149E0
1.974924037E1;3.514024734E0;3.504675388E0;-2.839484930E0
1.976755403E1;1.227200985E0;3.027109623E0;1.358998775E1
1.978586445E1;-3.276849031E0;-2.793215752E0;1.857125473E1
1.980418842E1;-7.737358570E0;-1.232387161E1;-8.357991219E0
1.982250080E1;-1.059894371E1;-7.103911400E0;-8.075235367E0
1.984081422E1;-5.790883541E0;3.392008781E0;5.277070999E0
1.985912556E1;-4.625008583E0;9.016351700E0;1.366590023E1
1.987742298E1;-5.196611404E0;6.859753132E0;7.513696671E0
1.989573872E1;-4.603389740E0;3.120808125E0;2.240242958E0
1.991405336E1;-3.565080404E0;-5.906505585E-1;3.455259085E0
1.993236238E1;-3.080008507E0;-4.588119507E0;2.507811069E0
1.995068659E1;2.714538097E0;-4.230129242E0;-2.699046612E0
1.996899897E1;8.165620804E0;-3.546743393E-1;-4.519761086E0
1.998731220E1;7.904965401E0;2.747123718E0;-2.682024956E0
2.000562330E1;4.438548088E0;3.462415218E0;-7.381553650E-1
2.002392103E1;9.464960098E-1;2.925871849E0;-4.301851988E-1
2.004224867E1;-1.954777718E0;2.314343452E0;4.101579189E-1
2.006056129E1;-2.672724485E0;2.939519882E0;4.216941595E-1
2.007887232E1;-1.492606163E0;2.727198601E0;-1.772751451E0
2.009717420E1;5.507040024E-2;4.918489456E-1;-3.650501251E0
2.011548731E1;9.900038242E-1;-1.064806938E0;-4.451501846E0
2.013379969E1;1.708232641E0;-8.009033203E-1;-3.677142620E0
2.015211073E1;2.019863129E0;-5.852413177E-1;-1.693920374E0
2.017042201E1;1.696976185E0;-2.008602142E0;-2.587033510E0
2.018873579E1;3.056394339E0;-2.650540352E0;-3.049169064E0
2.020704829E1;5.092407227E0;-4.451313972E0;-3.609427452E0
2.022535920E1;4.664002419E0;-6.539800644E0;-5.422586918E0
2.024367158E1;5.395311832E0;-7.387190819E0;-5.081729412E0
2.026198420E1;6.153817177E0;-5.873715401E0;-2.124828339E0
2.028029743E1;4.856445312E0;-4.620922089E0;-1.998346448E0
2.029860816E1;1.561437964E0;-3.321040154E0;-3.785332203E0
2.031692048E1;-2.843981981E0;-3.514853477E0;-6.891632557E0
2.033523426E1;-6.872345924E0;-3.762788773E0;-2.422611237E0
2.035354627E1;-8.662163734E0;-2.609727859E0;4.679566383E0
2.037187129E1;-8.308261871E0;-1.619094849E0;3.977802992E0
2.039018190E1;-6.739373684E0;-2.723608017E0;-1.719345212E0
2.040849317E1;-4.846962452E0;-3.303468704E0;-3.404950142E0
2.042680635E1;-2.300608158E-2;-7.830018997E-1;9.836018085E-1
2.044511750E1;3.507369518E0;1.108345985E0;3.850994587E0
2.046342970E1;4.054595947E0;1.917059898E0;4.312352180E0
2.048174195E1;3.570500851E0;1.617951870E0;3.576914310E0
2.050005543E1;2.227931023E0;1.393994331E0;3.398177624E0
2.051836640E1;4.411608577E-1;2.054055214E0;3.988557816E0
2.053667878E1;-8.305179477E-1;3.980391502E0;5.097113132E0
2.055499220E1;-1.302903175E0;6.242037773E0;6.944215298E0
2.057330415E1;-1.135692239E0;8.437505722E0;7.918399811E0
2.059161579E1;-1.641784430E0;1.058787918E1;6.127846718E0
2.060992756E1;-2.150485039E0;1.225268269E1;1.647649765E0
2.062824006E1;-2.455969810E0;1.119644165E1;1.167988777E-1
2.064655354E1;-1.602724910E0;6.403768063E0;-8.795189857E0
2.066486451E1;-3.952702045E0;-1.108759212E1;-2.040589523E1
2.068317793E1;-1.213782310E0;-2.352349472E1;-7.583094597E0
2.070148908E1;3.491678476E0;-1.735092545E1;-7.306687832E0
2.071980238E1;3.748946428E0;-7.896347046E-1;-6.181237698E0
2.073810902E1;3.048698902E0;6.817240715E0;-2.169514179E0
2.075642579E1;2.017738104E0;4.040826797E0;1.512376595E1
2.077473799E1;-2.549248934E0;-5.677027702E0;1.938946152E1
2.079305036E1;-6.590791702E0;-1.491850281E1;-3.950677633E0
2.081135969E1;-9.698369980E0;-6.189791679E0;-1.045383644E1
2.082967475E1;-5.457699299E0;4.859241486E0;3.267533779E0
2.084798707E1;-4.931322098E0;9.667110443E0;1.403783321E1
2.086629426E1;-4.891934395E0;6.783201218E0;7.413581848E0
2.088461189E1;-4.947177887E0;2.758781433E0;2.958259106E0
2.090292097E1;-3.535206795E0;-8.219108582E-1;3.386634350E0
2.092123609E1;-1.869023681E0;-4.413701057E0;2.184608936E0
2.093953602E1;3.861187935E0;-4.439205170E0;-2.982989311E0
2.095786060E1;9.193448067E0;-5.505981445E-1;-4.910913467E0
2.097617158E1;8.205942154E0;2.736848354E0;-2.440452099E0
2.099448420E1;5.003034592E0;3.426933765E0;9.233918786E-2
2.101279859E1;1.866228461E0;2.913816452E0;-2.498507500E-3
2.103110963E1;-9.105563164E-1;2.174054623E0;-3.014201522E-1
2.104941816E1;-2.535932064E0;2.292451382E0;6.287699938E-2
2.106773408E1;-2.374846697E0;2.002403736E0;-1.629457593E0
2.108604768E1;-3.523924351E-1;5.281667709E-1;-2.765907288E0
2.110435865E1;1.220386505E0;-6.630554199E-1;-2.994076252E0
2.112267115E1;1.477795124E0;-9.573116302E-1;-3.136683702E0
2.114098310E1;1.426458240E0;-1.020068169E0;-3.044777393E0
2.115929963E1;1.386303902E0;-2.292295456E0;-3.600649357E0
2.117760768E1;2.107429504E0;-2.749980927E0;-4.605984688E0
2.119592121E1;5.057854652E0;-3.936576843E0;-4.572892666E0
2.121423219E1;6.897022724E0;-6.358821869E0;-5.037062645E0
2.123253401E1;7.869781494E0;-7.185157776E0;-4.056089401E0
2.125085652E1;7.271796227E0;-5.236604691E0;-1.414699078E0
2.126916920E1;4.076546192E0;-3.279516220E0;-2.337023497E0
2.128748146E1;3.202874660E-1;-2.625099182E0;-3.560443163E0
2.130579438E1;-3.613788366E0;-3.520124435E0;-2.986058235E0
2.132410725E1;-7.420292377E0;-4.057610512E0;8.177758455E-1
2.134241798E1;-1.022559071E1;-3.376817703E0;4.993965626E0
2.136071876E1;-1.020865250E1;-3.036109924E0;2.699087620E0
2.137903889E1;-7.308981895E0;-3.580283165E0;-2.550723076E0
2.139735468E1;-3.547159433E0;-2.498706818E0;-3.607397556E0
2.141566694E1;1.579211354E0;-3.614425659E-4;1.045076013E0
2.143397926E1;5.963913918E0;1.484408379E0;3.658584833E0
2.145229396E1;4.566176414E0;1.268733025E0;3.609258175E0
2.147060377E1;2.193818092E0;7.486228943E-1;3.487184048E0
2.148891596E1;5.424323678E-1;6.140747070E-1;3.536332846E0
2.150722218E1;-1.169063449E0;1.318301201E0;3.949785709E0
2.152554170E1;-2.269735813E0;3.403544426E0;5.208898544E0
2.154385279E1;-2.404205322E0;5.937868118E0;6.315990448E0
2.156216627E1;-2.709306717E0;7.871108055E0;5.843406677E0
2.158048011E1;-3.006259918E0;8.881801605E0;4.313850880E0
2.159879078E1;-2.866135597E0;9.414102554E0;3.008724689E0
2.161710188E1;-1.579332829E0;1.000197411E1;2.830201149E0
2.163540821E1;1.906918287E-1;9.388216019E0;8.629260063E-1
2.165372627E1;-1.197558641E-1;6.301468372E0;-2.812165499E0
2.167204182E1;-8.423130512E-1;-6.501483917E-2;-7.319219589E0
2.169035053E1;-1.559417367E0;-1.388941097E1;-1.302213287E1
2.170866334E1;2.940530777E0;-1.865997314E1;-1.028165436E1
2.172697395E1;6.396037102E0;-1.017142200E1;-2.749008656E0
2.174528498E1;4.320744038E0;1.886247158E0;-3.129420996E0
2.176359870E1;6.851173401E0;7.857966423E0;-2.527861595E-1
2.178191206E1;5.631397247E0;9.365970612E0;1.082849121E1
2.180022431E1;-5.592416763E0;-1.879930496E-1;1.457241440E1
2.181854072E1;-1.547997570E1;-2.692970657E1;-4.017382622E0
2.183684882E1;-5.520513535E0;-1.658811569E1;-8.069906235E0
2.185516114E1;-4.364094734E0;-1.283454895E-2;-4.169417381E0
2.187347340E1;-7.533868313E0;9.268331528E0;1.289556503E1
2.189178688E1;-5.597133636E0;1.203848648E1;1.103101826E1
2.191009498E1;-4.912187099E0;6.382314205E0;7.296606064E0
2.192841010E1;-6.348339081E0;-1.992695808E0;5.408960819E0
2.194672236E1;-3.488177776E0;-5.754591942E0;2.783708572E0
2.196503706E1;1.300258279E0;-4.521719933E0;-6.666750908E-1
2.198334693E1;6.577436924E0;-2.570898056E0;-5.173504353E0
2.200165913E1;7.709145546E0;1.492261887E0;-5.224349976E0
2.201997169E1;4.507608891E0;4.121663094E0;-2.985372782E0
2.203828486E1;-1.170270443E-1;3.624465942E0;-8.812363148E-1
2.205659895E1;-2.307311296E0;2.732425690E0;2.074465275E0
2.207490815E1;-2.048685551E0;2.901913643E0;2.274531841E0
2.209320863E1;2.710523605E-1;2.289915085E0;-6.741427183E-1
2.211153370E1;1.670585155E0;8.338203430E-1;-3.943787098E0
2.212984504E1;8.528112173E-1;-2.623767853E-1;-6.231093407E0
2.214815266E1;-1.522855759E-1;-3.291482925E-1;-6.261346817E0
2.216646955E1;6.415941715E-1;6.175994873E-3;-3.937122822E0
2.218478291E1;1.758366346E0;-2.022124290E0;-4.044427872E0
2.220309339E1;4.731328011E0;-3.495991707E0;-4.769718170E0
2.222140650E1;8.182195663E0;-3.879001617E0;-4.164001465E0
2.223971852E1;9.239433289E0;-4.764695168E0;-5.268774986E0
2.225803205E1;6.876587868E0;-5.768697739E0;-2.985657692E0
2.227633692E1;3.688004971E0;-4.440351486E0;-1.918236971E0
2.229465553E1;-7.539892197E-1;-3.294236183E0;-3.972371578E0
2.231296687E1;-3.861127615E0;-2.937810898E0;-4.697006702E0
2.233128108E1;-5.997089386E0;-4.109243393E0;-8.529372215E-1
2.234959205E1;-9.398157120E0;-4.462187767E0;4.891148567E0
2.236790437E1;-1.025522423E1;-4.411803246E0;3.606637239E0
2.238621662E1;-7.513673306E0;-5.544683456E0;-3.824546814E0
2.240452888E1;-4.627079010E0;-5.306435585E0;-4.738812923E0
2.242284114E1;-6.294679642E-1;-2.469443321E0;6.873281002E-1
2.244115333E1;3.532099247E0;-1.721830368E-1;3.236826897E0
2.245946565E1;3.746870995E0;7.455234528E-1;3.004405022E0
2.247777937E1;2.928481102E0;1.255511284E0;3.153429747E0
2.249608955E1;1.361263037E0;1.489108086E0;3.545522213E0
2.251440260E1;1.074984670E-1;1.931850433E0;4.365668774E0
2.253271455E1;-7.790737748E-1;3.315836430E0;5.307785988E0
2.255102809E1;-8.025070429E-1;5.133378029E0;6.096998215E0
2.256933039E1;-9.698526263E-1;6.909652710E0;6.680583477E0
2.258765138E1;-1.674444079E0;8.872610092E0;6.577557564E0
2.260596485E1;-2.073318720E0;1.089757156E1;5.356369495E0
2.262427705E1;-2.713558674E0;1.211796761E1;2.345456600E0
2.264258845E1;-2.226681232E0;1.131568813E1;9.768326283E-1
2.266090064E1;1.235066652E-1;6.678989410E0;-7.387238503E0
2.267921711E1;1.196595430E0;-7.573287964E0;-1.531425381E1
2.269751307E1;1.572449207E0;-2.140730667E1;-1.048497581E1
2.271582630E1;8.404778481E0;-1.567686081E1;-5.500970840E0
2.273413819E1;4.885241985E0;-1.367774010E0;-7.997035980E0
2.275245289E1;6.095670223E0;5.928606033E0;8.895857811E0
2.277077510E1;-9.978561401E-1;5.064700127E0;1.316640091E1
2.278908155E1;-1.055464935E1;-8.854898453E0;9.707792282E0
2.280739552E1;-7.963163853E0;-1.927984810E1;-1.603127098E1
2.282571064E1;-5.819898605E0;-4.869375229E0;-6.076316833E-1
2.284402418E1;-3.053197145E0;5.891475677E0;1.049702644E1
2.286233668E1;-1.406097054E0;6.417201042E0;1.216498470E1
2.288064765E1;-2.960600853E0;3.913164139E-1;9.127058983E0
2.289895991E1;-2.942326546E0;-2.756904602E0;5.339049816E0
2.291726856E1;5.161190033E-2;-2.199687004E0;1.695794582E0
2.293558454E1;2.176108599E0;-2.021946907E0;-3.088324308E0
2.295389680E1;3.220432758E0;-4.966402054E-1;-4.200595856E0
2.297220997E1;1.859848976E0;1.867364883E0;-1.746857047E0
2.299052223E1;-6.206274033E-3;4.165858746E0;-1.274564862E-2
2.300883320E1;-1.620741129E0;4.741677284E0;-9.093108177E-1
2.302714552E1;-1.900078297E0;3.176659584E0;-2.537925005E0
2.304545191E1;-8.147764206E-1;1.349339485E0;-1.381623149E0
2.306377424E1;9.508748055E-1;9.007892609E-1;-5.555934906E-1
2.308208235E1;2.187498808E0;1.344042778E0;3.267717361E-2
2.310039454E1;2.592594624E0;1.530785561E0;-1.640197635E-1
2.311870698E1;2.600799322E0;1.378817558E0;-1.083510756E0
2.313701149E1;1.591355801E0;-1.053514481E0;-2.335875988E0
2.315532698E1;-3.370239735E-1;-1.886074066E0;-3.797542095E0
2.317363636E1;-2.463161707E0;-2.260449409E0;-3.501602173E0
2.319195881E1;-1.477101326E0;-2.508069038E0;-1.326318502E0
2.321027247E1;1.190734625E0;-3.856466293E0;-8.893888593E-1
2.322858058E1;4.366778851E0;-6.527419090E0;-3.221857548E0
2.324689155E1;5.376527786E0;-6.943683624E0;-2.912722588E0
2.326519337E1;5.715695381E0;-5.761053085E0;-2.399958134E0
2.328351564E1;3.601488352E0;-4.693672180E0;-3.083567619E0
2.330181800E1;8.770692348E-1;-3.044958115E0;-5.819420338E0
2.332013087E1;-1.037662029E-1;-1.049936295E0;-5.626554489E0
2.333844331E1;1.082568645E0;4.020624161E-1;-1.749027967E0
2.335675599E1;1.753379941E0;2.852745056E-1;2.953234315E-1
2.337506709E1;7.218606472E-1;-2.541589737E-1;-6.034314632E-2
2.339337995E1;-2.147691250E-1;4.038000107E-1;-2.828279138E-1
2.341170600E1;-1.168039799E0;6.525754929E-1;6.505374908E-1
2.343001686E1;-2.562207222E0;-6.513395309E-1;6.957979798E-1
2.344832734E1;-4.245257854E0;-1.935109138E0;-6.583185792E-1
2.346663960E1;-4.994495392E0;-1.715407372E0;-1.372762322E0
2.348495216E1;-5.070920944E0;-4.019308090E-1;-4.208899736E-1
2.350326655E1;-4.043947220E0;1.526722908E0;4.642486572E-1
2.352157643E1;-1.130787611E0;3.085845470E0;1.076516390E0
2.353988893E1;1.607857704E0;3.623828888E0;1.041110516E0
2.355819630E1;3.389582157E0;2.736900330E0;3.769577742E-1
2.357651765E1;3.748322964E0;1.749523163E0;7.323273420E-1
2.359482545E1;3.234934568E0;1.056671143E0;9.794645309E-1
2.361313679E1;2.272011995E0;1.360976219E0;4.591000080E-1
2.363145020E1;-1.908981800E-2;3.127217293E0;3.670666218E-1
2.364976319E1;-1.341960669E0;5.033288956E0;1.439192772E0
2.366807447E1;-1.776349306E0;6.323363304E0;2.819041967E0
2.368638093E1;-1.702973723E0;7.344155312E0;3.326225519E0
2.370469923E1;-1.471704602E0;7.984149456E0;3.028454304E0
2.372301167E1;-1.204048872E0;8.113006592E0;1.680212140E0
2.374132374E1;-9.104571342E-1;6.641289711E0;-2.176463842E0
2.375963600E1;-1.779829264E-1;1.057320595E0;-7.553532124E0
2.377794831E1;2.561094284E0;-1.026036549E1;-9.877502441E0
2.379626148E1;3.368023396E0;-1.098804855E1;-7.652816772E0
2.381457185E1;1.389758348E0;-6.808279991E0;-9.338008881E0
2.383288502E1;-4.410002708E0;-1.504985332E1;-1.588930321E1
2.385119679E1;-3.235601902E0;-2.141123772E1;9.454786301E0
2.386950007E1;-2.216658115E0;-5.299529076E0;1.911776161E1
2.388781001E1;-4.522153854E0;7.643215179E0;-9.484615326E-1
2.390612367E1;4.340018034E-1;1.253054142E1;8.107731819E0
2.392443501E1;-1.251613736E0;1.207250404E1;1.429311180E1
2.394274842E1;-1.151523304E1;4.260067940E0;3.533740282E0
2.396105995E1;-1.130028057E1;-4.828136444E0;-3.222344875E0
2.397937300E1;-4.820588112E0;-5.670642853E0;1.882243156E-1
2.399768470E1;-9.606785774E-1;-6.344699860E0;5.945472121E-1
2.401599269E1;3.912041187E0;-3.416074753E0;2.484440804E-2
2.403430824E1;6.363334179E0;2.507371902E-1;-1.723738194E0
2.405262104E1;5.793266296E0;2.323341846E0;-2.746542454E0
2.407093415E1;5.118206501E0;3.207173824E0;-1.315561652E0
2.408923976E1;2.255374908E0;3.292833328E0;6.429591775E-1
2.410755702E1;5.886077881E-2;3.007006645E0;2.294948339E0
2.412588398E1;-1.206764460E0;2.475807190E0;-4.312103987E-2
2.414419453E1;-1.359366417E0;2.251712322E0;-2.116535187E0
2.416250691E1;-6.469712257E-1;1.544763565E0;-2.114978313E0
2.418081788E1;1.017761707E0;1.051150322E0;-9.071302414E-1
2.419912525E1;1.607211709E0;-2.428503036E-1;-1.768357635E0
2.421744245E1;1.771404028E0;-1.196429253E0;-3.948693752E0
2.423575563E1;3.112265110E0;-2.184425354E0;-3.608497620E0
2.425406574E1;4.196815968E0;-4.188976288E0;-4.206884384E0
2.427236720E1;5.458207130E0;-4.470952034E0;-4.605858803E0
2.429069123E1;7.023210526E0;-5.719071388E0;-5.517540455E0
2.430900514E1;8.361570358E0;-6.792432785E0;-6.023854256E0
2.432731105E1;7.050653458E0;-5.861586571E0;-4.200607777E0
2.434562794E1;5.346225739E0;-3.415161133E0;-2.901310921E0
2.436394038E1;3.335815668E0;-2.559452057E0;-1.413041115E0
2.438225483E1;1.284096241E-1;-2.998042107E0;-2.828929424E0
2.440056495E1;-4.820519447E0;-4.017485619E0;-4.377846241E0
2.441887727E1;-7.910901070E0;-4.720647812E0;2.168771982E0
2.443718006E1;-1.048607635E1;-4.226348877E0;6.046888351E0
2.445549690E1;-1.357016945E1;-4.780067444E0;5.144795179E-1
2.447381397E1;-1.154285431E1;-4.450861931E0;-3.435978889E0
2.449212715E1;-6.230133533E0;-8.549880981E-1;-1.191094637E0
2.451043855E1;-4.561468363E-1;2.259989738E0;3.024180889E0
2.452875166E1;5.284169674E0;2.557367325E0;4.262671471E0
2.454706306E1;5.186419964E0;1.245068550E0;2.799940825E0
2.456537159E1;3.420050621E0;3.800878525E-1;2.208779097E0
2.458368867E1;2.174874783E0;1.627855301E-1;2.227329969E0
2.460199922E1;4.368886352E-1;4.819765091E-1;2.999113083E0
2.462031202E1;-1.132654190E0;3.381206512E0;5.224221230E0
2.463862422E1;-1.499156952E0;6.288275242E0;7.275375843E0
2.465693666E1;-1.770526648E0;8.436413765E0;7.417379856E0
2.467524787E1;-2.396088123E0;1.018726730E1;5.450539589E0
2.469356105E1;-2.496793747E0;1.207635593E1;4.310920238E0
2.471187336E1;-1.499629855E0;1.254137230E1;1.510592222E0
2.473018507E1;-9.200930595E-1;1.055744743E1;-6.675835609E0
2.474849873E1;-1.967710376E0;1.837794304E0;-1.153929806E1
2.476681013E1;-2.833880186E0;-1.595426941E1;-1.121038818E1
2.478512354E1;2.558638096E0;-2.197703552E1;-5.955568314E0
2.480343458E1;3.938956738E0;-1.327682686E1;-7.146824837E0
2.482174806E1;-7.480642796E-1;-2.695815086E0;-1.011061764E1
2.484005940E1;-1.890789628E0;-6.363388062E0;4.709188461E0
2.485837129E1;-5.554045439E-1;-7.265228271E0;1.754714012E1
2.487668360E1;-2.870521307E0;-6.291275024E-1;7.638651371E0
2.489499586E1;-1.084230995E1;5.040302753E0;-1.152406216E1
2.491330543E1;-1.105777836E1;6.906915665E0;7.520832062E0
2.493162043E1;-8.433260918E0;5.375579357E0;1.527290916E1
2.494993281E1;-5.304382801E0;2.862191200E0;5.839620590E0
2.496824116E1;-1.673344135E0;7.949905396E-1;2.425117016E0
2.498655714E1;-1.276211500E0;-2.727481842E0;4.854249477E0
2.500486939E1;-1.369257927E0;-6.715352058E0;2.655139923E0
2.502318043E1;4.796769142E0;-5.407552719E0;-2.791399240E0
2.504149513E1;9.888491631E0;-5.748872757E-1;-3.433070183E0
2.505980616E1;9.220749855E0;1.950120926E0;-2.930289268E0
2.507811836E1;4.781766891E0;2.228322029E0;-9.304594398E-1
2.509642463E1;9.543693066E-1;2.562759876E0;3.078662157E-1
2.511474421E1;-9.390437603E-1;2.777310848E0;7.854124308E-1
2.513305708E1;-2.733190060E0;3.126336575E0;8.278524876E-1
2.515136750E1;-3.138826132E0;3.385715485E0;-9.736896157E-1
2.516967970E1;-1.490715027E0;2.301812172E0;-2.850110531E0
2.518799317E1;1.319150090E0;4.233322144E-1;-2.117273331E0
2.520630421E1;3.430176258E0;-7.407636642E-1;-1.515417576E0
2.522461762E1;3.636799574E0;-6.017837524E-1;-2.518952370E0
2.524292872E1;2.628558636E0;-2.688484192E-1;-2.871521473E0
2.526124220E1;6.179671288E-1;-1.636931419E0;-2.726259232E0
2.527955317E1;2.162846804E0;-3.565937042E0;-3.021653652E0
2.529786549E1;5.506846428E0;-6.290257454E0;-4.616232872E0
2.531617799E1;6.604407310E0;-6.984386444E0;-6.297226906E0
2.533449116E1;7.013491631E0;-5.537671089E0;-5.681822777E0
2.535279200E1;6.193236351E0;-4.095705986E0;-2.649918556E0
2.537111451E1;5.052138805E0;-3.958700180E0;-1.910569191E0
2.538942677E1;2.512889624E0;-3.672537804E0;-3.399012089E0
2.540774030E1;-2.047479153E0;-3.277182579E0;-5.655924797E0
2.542605250E1;-7.702563286E0;-3.806625366E0;-3.062160969E0
2.544436341E1;-9.972713470E0;-3.706900597E0;4.805094719E0
2.546267585E1;-1.037439156E1;-3.101615906E0;5.702680111E0
2.548098927E1;-9.834822655E0;-3.831048965E0;-5.677764416E-1
2.549930323E1;-5.874505043E0;-2.790435791E0;-3.726872444E0
2.551761256E1;7.454190850E-1;1.385641098E-1;1.385463834E0
2.553591871E1;5.204768181E0;1.368629456E0;3.990560055E0
2.555423835E1;4.981160641E0;8.808536530E-1;3.407284975E0
2.557254927E1;3.552486897E0;4.909420013E-1;2.581268787E0
2.559086158E1;1.898363590E0;4.510927200E-1;2.264257431E0
2.560917115E1;-1.912480295E-1;8.898639679E-1;3.680202484E0
2.562748725E1;-1.678589940E0;3.189279079E0;6.298048496E0
2.564579835E1;-1.810193896E0;6.178320408E0;7.934177399E0
2.566410945E1;-2.413507223E0;8.304415703E0;8.353261948E0
2.568242292E1;-3.368456364E0;1.007688141E1;6.531699181E0
2.570073658E1;-3.512081146E0;1.166716003E1;3.367594004E0
2.571904762E1;-2.660890341E0;1.220008945E1;3.207288265E0
2.573735505E1;-7.374014854E-1;1.031820393E1;-2.201793194E0
2.575567182E1;-1.543100953E0;2.467241764E0;-1.444066334E1
2.577398560E1;-2.677573681E0;-1.522718143E1;-1.221239090E1
2.579229780E1;3.695633173E0;-2.378515625E1;-9.039840698E0
2.581060865E1;6.205492973E0;-1.412368679E1;-5.821879864E0
2.582892091E1;3.162549496E0;2.998180389E-1;-7.669791222E0
2.584723438E1;3.826471329E0;4.878010273E0;7.926293373E0
2.586554658E1;-2.850738287E0;4.981994629E-2;1.639575005E1
2.588385792E1;-2.698078632E0;-1.031787968E1;9.365917206E0
2.590217097E1;-1.041723728E1;-1.233915043E1;-1.396147919E1
2.592048628E1;-8.050802231E0;-4.668016434E-1;-7.162141800E0
2.593879469E1;-7.877902985E0;8.680843353E0;1.295134258E1
2.595710670E1;-6.015059471E0;1.095342636E1;1.144248390E1
2.597541505E1;-6.938147068E0;5.016263485E0;5.774656296E0
2.599373390E1;-4.626187325E0;5.599298477E-1;4.664650917E0
2.601204377E1;-4.638066292E0;-4.691370010E0;4.074515820E0
2.603035572E1;-1.788691282E-1;-6.928788185E0;-1.132910967E0
2.604866798E1;8.386817932E0;-4.111634254E0;-4.983881474E0
2.606698146E1;1.109574699E1;5.294723511E-1;-3.253027916E0
2.608528913E1;8.448068619E0;3.122842789E0;-2.066758722E-1
2.610360468E1;3.798392296E0;3.617962360E0;5.447625518E-1
2.612191725E1;-8.397586346E-1;3.386287689E0;-4.064995348E-1
2.614023078E1;-3.012778997E0;3.062557220E0;-7.409977913E-2
2.615854164E1;-2.682597876E0;2.764660835E0;3.596910834E-1
2.617684803E1;-3.836202621E-2;1.274637222E0;-1.692844152E0
2.619515650E1;2.095223665E0;-4.596767426E-1;-4.760205269E0
2.621346876E1;3.207711458E0;-1.570504189E0;-5.129111767E0
2.623178022E1;3.636866808E0;-7.867164612E-1;-2.451472282E0
2.625009181E1;3.268542290E0;-2.943038940E-3;-6.334602833E-2
2.626841413E1;1.908215523E0;-9.724426270E-2;-8.884896636E-1
2.628672871E1;1.843928456E0;-6.697769165E-1;-2.658411503E0
2.630503865E1;3.631852865E0;-4.271595001E0;-3.408531904E0
2.632335206E1;4.122119427E0;-6.691863060E0;-3.453691959E0
2.634166432E1;5.513359547E0;-6.178537369E0;-4.492482185E0
2.635997779E1;5.585814476E0;-4.852606773E0;-2.608681202E0
2.637828395E1;4.119537830E0;-5.814482689E0;-2.519867420E0
2.639659004E1;1.036967158E0;-5.609227180E0;-4.234272957E0
2.641489607E1;-2.052309036E0;-4.396378517E0;-6.568245411E0
2.643321528E1;-5.219226837E0;-2.989387512E0;-4.469230652E0
2.645153480E1;-7.151606560E0;-1.740203857E0;3.225803375E0
2.646985041E1;-8.626714706E0;-9.699850082E-1;7.255132198E0
2.648816236E1;-9.752427101E0;-1.578845024E0;4.726515412E-1
2.650647584E1;-8.526698112E0;-2.646582603E0;-5.515838623E0
2.652478688E1;-3.770243406E0;-7.373218536E-1;-2.520565748E0
2.654309828E1;2.868900299E0;1.417385101E0;2.703155279E0
2.656141139E1;6.045323849E0;1.918486118E0;4.028224468E0
2.657972486E1;5.330141544E0;1.381177902E0;3.162389040E0
2.659803590E1;4.120169640E0;1.552531242E0;2.714084387E0
2.661635151E1;2.368665457E0;1.815296173E0;3.109679222E0
2.663466157E1;6.841540337E-1;2.369336128E0;3.887308836E0
2.665297273E1;-9.955248833E-1;4.026037216E0;4.856152058E0
2.667128517E1;-1.401199937E0;5.572824478E0;6.318501472E0
2.668959132E1;-2.026925802E0;6.923242569E0;7.171016693E0
2.670790949E1;-2.374180794E0;8.591614723E0;5.722363472E0
2.672622297E1;-1.348190665E0;1.094603729E1;3.120736837E0
2.674453394E1;-1.389602304E0;1.118162537E1;8.735001087E-1
2.676284742E1;-2.285463333E0;7.535382748E0;-8.798921585E0
2.678115870E1;-9.804524183E-1;-7.816123962E0;-1.633946228E1
2.679947187E1;-4.786598682E-2;-2.181968307E1;-8.210876465E0
2.681777839E1;4.453629971E0;-1.780390930E1;-7.905083179E0
2.683609529E1;1.655845881E0;-4.152215004E0;-5.820561409E0
2.685440785E1;2.219062805E0;5.881325722E0;-2.875963926E0
2.687272102E1;2.345970154E0;9.082852364E0;9.817931175E0
2.689103175E1;-3.677066326E0;5.019554138E0;1.593243027E1
2.690933454E1;-1.299504375E1;-1.208628750E1;1.000305653E0
2.692764558E1;-1.233193779E1;-1.959942436E1;-1.051268291E1
2.694595912E1;-3.733116627E0;-2.803744316E0;-4.780129910E0
2.696427052E1;-2.490270138E0;7.756131649E0;1.031766701E1
2.698258222E1;-1.377909064E0;1.068847179E1;1.307322311E1
2.700089357E1;-3.305383444E0;5.356590748E0;7.480537415E0
2.701920668E1;-3.589025021E0;-1.585885048E0;3.852443218E0
2.703752998E1;-1.563151717E0;-5.631964684E0;2.358392000E0
2.705584230E1;1.784070969E0;-5.267442703E0;-1.524289489E0
2.707415358E1;7.391339779E0;-1.945738792E0;-4.875175953E0
2.709245899E1;8.033861160E0;1.148116112E0;-4.820756912E0
2.711077906E1;4.650760651E0;2.874856949E0;-1.349611878E0
2.712909126E1;7.414462566E-1;3.176028252E0;3.702410460E-1
2.714740357E1;-2.104476690E0;3.150349617E0;3.199853897E-1
2.716571730E1;-3.345004320E0;3.689972878E0;7.916318178E-1
2.718402833E1;-3.031394005E0;3.873500347E0;-4.059242010E-1
2.720234059E1;-4.388654232E-1;2.127426147E0;-1.840302110E0
2.722065284E1;1.364455819E0;-7.425117493E-1;-2.984845161E0
2.723896607E1;2.577643156E0;-1.866036415E0;-4.188101768E0
2.725727741E1;2.963322163E0;-6.650094986E-1;-4.274971962E0
2.727559083E1;3.529136419E0;1.537961960E-1;-2.167928696E0
2.729388453E1;3.132820606E0;-1.116696358E0;-1.870735884E0
2.731221461E1;3.009937048E0;-1.226313591E0;-3.432585716E0
2.733052638E1;5.256539345E0;-3.741688728E0;-4.245679379E0
2.734883857E1;5.720684528E0;-6.575397491E0;-4.552843094E0
2.736714954E1;5.700654030E0;-6.710336685E0;-5.723916531E0
2.738546412E1;7.178752899E0;-4.205635071E0;-3.065430164E0
2.740377693E1;5.926893234E0;-3.326053619E0;-1.352289200E0
2.742208766E1;3.041494131E0;-3.487959862E0;-2.881384850E0
2.744039985E1;-1.091008902E0;-4.737023354E0;-5.973730087E0
2.745870851E1;-5.716331482E0;-5.061508179E0;-2.070716619E0
2.747702412E1;-8.136901855E0;-4.099126816E0;5.462517738E0
2.749533320E1;-9.183126450E0;-3.618241310E0;5.893249989E0
2.751364894E1;-8.844408035E0;-4.418553352E0;-5.760977268E-1
2.753196247E1;-5.238265514E0;-2.755583763E0;-4.073153496E0
2.755027375E1;-2.058205605E-1;6.146430969E-1;8.885871172E-1
2.756858564E1;4.668153763E0;1.807847023E0;3.986639500E0
2.758689192E1;5.000143528E0;1.335043907E0;3.525159359E0
2.760520027E1;3.523455620E0;8.853588104E-1;3.496888399E0
2.762351136E1;1.804774523E0;1.017976761E0;3.146681309E0
2.764182356E1;-6.028068066E-2;1.624320030E0;3.448026419E0
2.766013660E1;-1.905584216E0;3.624515057E0;4.855377197E0
2.767844929E1;-2.247406006E0;6.284442902E0;6.712140083E0
2.769676075E1;-2.872012377E0;8.665657997E0;6.971547127E0
2.771507289E1;-3.899040937E0;1.080791378E1;5.233431816E0
2.773338532E1;-4.424119949E0;1.190676880E1;2.239312649E0
2.775169874E1;-4.260732174E0;1.017539501E1;1.220772982E0
2.777000892E1;-1.680951715E0;5.843761921E0;-2.655576468E0
2.778832240E1;-1.092747927E0;-8.385325432E0;-1.907678604E1
2.780663356E1;8.499921560E-1;-2.097520447E1;-1.060998917E1
2.782494721E1;7.608193398E0;-1.572463799E1;-7.132339001E0
2.784326857E1;4.405530930E0;-1.787360191E0;-2.759280205E0
2.786158180E1;4.485376835E0;4.688074589E0;-2.473833323E0
2.787989411E1;4.205279350E0;2.738558769E0;8.354960442E0
2.789820753E1;2.740075350E0;-2.931864738E0;1.494129276E1
2.791651881E1;-2.686345100E0;-1.397620583E1;3.152974606E0
2.793483082E1;-9.963315010E0;-1.115482616E1;-1.377539921E1
2.795314344E1;-1.000411320E1;2.725505829E-2;-6.392881393E0
2.797145686E1;-9.717100143E0;9.097446442E0;1.570830250E1
2.798975404E1;-5.905755997E0;1.225772095E1;1.037146473E1
2.800807142E1;-6.230341911E0;7.111000538E0;4.921747684E0
2.802639210E1;-4.694549084E0;1.127490997E0;5.631298065E0
2.804470698E1;-4.847068787E0;-7.051229477E0;3.860607862E0
2.806301448E1;2.718631029E-1;-8.512844086E0;-6.667374969E-1
2.808132905E1;8.060778618E0;-4.112691879E0;-4.551331520E0
2.809964418E1;1.100049782E1;2.567920685E-1;-4.953386784E0
2.811795484E1;8.359153748E0;2.230494022E0;-6.901853681E-1
2.813626521E1;3.046089172E0;2.949806213E0;6.216739416E-1
2.815457820E1;-9.831767082E-1;3.335759163E0;5.612728596E-1
2.817289155E1;-2.524770975E0;3.794535160E0;-2.436752319E-1
2.819120381E1;-3.772557259E0;3.532989502E0;-1.021572709E0
2.820951472E1;-7.134702206E-1;2.006665230E0;-2.602999210E0
2.822782252E1;2.125936508E0;3.293800354E-1;-2.640606403E0
2.824613941E1;3.371238232E0;-8.240289688E-1;-2.774786711E0
2.826445289E1;3.348806143E0;-5.440292358E-1;-3.619772911E0
2.828276392E1;3.224122763E0;-7.868957520E-2;-2.761274099E0
2.830107649E1;2.369735718E0;-4.751367569E-1;-1.182986021E0
2.831938844E1;1.939747453E0;-1.417838097E0;-1.409084916E0
2.833770222E1;4.022437096E0;-4.154117584E0;-2.853027344E0
2.835600709E1;5.165349960E0;-5.993978500E0;-4.619587421E0
2.837432569E1;4.355742455E0;-5.213640213E0;-5.538984776E0
2.839263764E1;4.739050865E0;-4.406541824E0;-2.944928169E0
2.841095118E1;4.505659103E0;-4.090439796E0;-2.530133486E0
2.842926222E1;2.564096212E0;-4.179975510E0;-3.830395937E0
2.844757423E1;-6.528124809E-1;-3.383330345E0;-5.105089664E0
2.846588667E1;-3.619908810E0;-3.139537811E0;-5.696420670E0
2.848419874E1;-6.940353870E0;-2.998070717E0;-5.459460020E-1
2.850250007E1;-7.769428253E0;-2.497003555E0;5.946845055E0
2.852082350E1;-8.032875061E0;-2.142424583E0;4.334582329E0
2.853913575E1;-8.082535744E0;-4.153329849E0;-2.616337061E0
2.855744917E1;-4.613940239E0;-4.108025551E0;-4.112125397E0
2.857576026E1;1.054248452E0;-1.108610153E0;4.507815838E-1
2.859407282E1;5.107939243E0;9.619359970E-1;3.415226936E0
2.861237446E1;4.957117081E0;1.270355225E0;3.479182482E0
2.863069819E1;2.702799559E0;8.682479858E-1;2.939091206E0
2.864900929E1;7.744342685E-1;1.143258095E0;3.335851908E0
2.866732136E1;-1.136006594E0;2.039525986E0;4.337872505E0
2.868563496E1;-2.160773754E0;4.009105682E0;5.750276566E0
2.870394721E1;-2.409152031E0;6.291767597E0;6.883573055E0
2.872225959E1;-2.460382700E0;8.411321640E0;6.967857361E0
2.874057081E1;-2.857736349E0;1.042556190E1;5.193270683E0
2.875888307E1;-2.424419880E0;1.204900551E1;1.949788094E0
2.877720069E1;-1.625078082E0;1.165510178E1;3.433234692E-1
2.879550758E1;-1.187198997E0;8.255267143E0;-6.910319805E0
2.881382106E1;-4.079904556E-1;-5.291577339E0;-1.549403667E1
2.883213301E1;-5.142688751E-2;-2.104026031E1;-8.124050140E0
2.885044502E1;6.145720482E0;-2.079710960E1;-8.191855431E0
2.886875172E1;4.010906696E0;-6.560013771E0;-7.095645905E0
2.888706617E1;2.620212317E0;2.275764465E0;-4.618381500E0
2.890537721E1;2.881972313E0;2.936525345E-1;1.041526508E1
2.892369434E1;1.237807989E0;-2.463035583E0;1.761205482E1
2.894200562E1;-5.142556190E0;-8.396054268E0;8.011846542E-1
2.896031782E1;-1.283576298E1;-5.207119942E0;-1.524672890E1
2.897863014E1;-9.419227600E0;3.052599907E0;1.600634575E0
2.899693757E1;-6.583017826E0;8.358196259E0;1.475499344E1
2.901525123E1;-4.596943855E0;7.433444500E0;9.076374054E0
2.903356703E1;-4.442822933E0;3.471334457E0;4.846361160E0
2.905187922E1;-3.852008820E0;-3.080387115E-1;4.128862381E0
2.907019288E1;-3.722767591E0;-5.261372566E0;2.744157791E0
2.908850386E1;1.334871173E0;-5.817772865E0;-1.566861868E0
2.910681568E1;8.608274460E0;-2.610130310E0;-4.431694984E0
2.912512702E1;1.137907505E1;5.941658020E-1;-3.889980078E0
2.914342744E1;8.281401634E0;1.910596848E0;-4.078407288E-1
2.916175270E1;2.972291946E0;2.409783363E0;5.156102180E-1
2.918006495E1;-4.999279976E-1;3.003007412E0;-1.803411543E-1
2.919837745E1;-2.726123333E0;3.396282673E0;-6.570254564E-1
2.921669136E1;-3.660051346E0;3.309636593E0;-1.522578478E0
2.923500166E1;-2.310249090E0;1.680733681E0;-2.294796705E0
2.925331275E1;1.127706289E0;-3.397378922E-1;-3.601613998E0
2.927162647E1;3.117534161E0;-1.540237427E0;-5.032787323E0
2.928992799E1;4.029471874E0;-7.371215820E-1;-3.419236183E0
2.930825099E1;3.954218864E0;-7.129602432E-1;-6.614898443E-1
2.932656324E1;2.606872082E0;-9.817237854E-1;-1.114897966E0
2.934487550E1;3.476149797E0;-1.813883781E0;-2.936358929E0
2.936318873E1;4.313626766E0;-4.919929504E0;-4.637228012E0
2.938150019E1;3.540406466E0;-6.601783752E0;-4.801744938E0
2.939981226E1;5.045886993E0;-5.874743462E0;-2.521181107E0
2.941812458E1;5.868816376E0;-4.387938499E0;-1.075352073E0
2.943643806E1;4.190926552E0;-5.113799095E0;-2.470051765E0
2.945475050E1;1.037937403E0;-4.640789032E0;-4.664552689E0
2.947306062E1;-2.447021008E0;-2.956810951E0;-6.508591652E0
2.949137355E1;-5.804868698E0;-2.115195274E0;-4.384859085E0
2.950968971E1;-8.812497139E0;-2.085322380E0;3.039132357E0
2.952799531E1;-9.211276054E0;-1.756010056E0;7.092724800E0
2.954631037E1;-9.207718849E0;-2.278426170E0;2.359344482E0
2.956462287E1;-7.353906631E0;-3.994557381E0;-4.277316093E0
2.958293470E1;-2.835250378E0;-2.965773582E0;-3.367439985E0
2.960124732E1;2.443964243E0;-2.044210434E-1;1.601722479E0
2.961955958E1;5.047935009E0;1.160337448E0;3.597350121E0
2.963785749E1;3.588175774E0;8.761138916E-1;3.908782244E0
2.965617420E1;2.225634575E0;1.139365196E0;3.547003746E0
2.967448646E1;3.206350505E-1;1.340895653E0;3.207855225E0
2.969279731E1;-1.166651487E0;2.569106102E0;4.068081856E0
2.971110938E1;-1.535523176E0;4.704849720E0;5.272610664E0
2.972942921E1;-1.774037123E0;6.497973442E0;5.793094635E0
2.974773426E1;-2.031208038E0;8.208784103E0;5.562697411E0
2.976604603E1;-1.786694050E0;9.720336914E0;4.477906227E0
2.978436988E1;-9.410370588E-1;1.071680069E1;3.285080910E0
2.980268342E1;2.868053913E-1;1.079505634E1;3.789961338E-1
2.982099464E1;-1.812696457E-2;7.465172291E0;-9.356872559E0
2.983930964E1;8.679343462E-1;-4.610651970E0;-7.773065090E0
2.985761891E1;-1.949323058E0;-1.905464172E1;-6.231958389E0
2.987593238E1;2.034974337E0;-1.851576996E1;-7.418867111E0
2.989424250E1;1.707684159E0;-6.009406090E0;-7.566378593E0
2.991255574E1;-3.361413956E0;2.262096405E0;-9.360264778E0
2.993086769E1;9.997386932E-1;-6.196253777E0;-1.420943737E-1
2.994918141E1;6.133606911E0;-8.493415833E0;1.723440933E1
2.996749208E1;1.367240667E0;-3.904323578E-1;1.033556938E1
2.998580470E1;-5.573281765E0;5.157182693E0;-7.700503349E0
3.000410267E1;-9.836320877E0;5.754888058E0;-2.588208199E0
3.002243190E1;-1.052000904E1;4.111280441E0;1.211596966E1
3.004074171E1;-5.758190155E0;3.293597221E0;6.300465584E0
3.005905396E1;-2.121332169E0;1.242487907E0;3.556921482E0
3.007736622E1;-1.523294210E0;-2.121402740E0;3.423903465E0
3.009568092E1;-6.159008741E-1;-5.914072990E0;1.458486795E0
3.011399073E1;5.536347389E0;-4.969594955E0;-3.299553871E0
3.013230299E1;9.108463287E0;-2.222709656E-1;-3.673702717E0
3.015061549E1;7.860292435E0;1.857665062E0;-1.393275380E0
3.016892866E1;4.224321842E0;1.993887424E0;6.138562560E-1
3.018723976E1;1.039088011E0;2.389804363E0;1.576716304E0
3.020553895E1;-8.274726868E-1;3.006598473E0;1.336313963E0
3.022386543E1;-2.926187754E0;3.157425404E0;1.100707054E-1
3.024217866E1;-2.804926157E0;2.570073605E0;-2.663923264E0
3.026048902E1;-7.264008522E-1;1.792324066E0;-3.575851679E0
3.027879664E1;1.581725121E0;7.216081619E-1;-1.710036039E0
3.029711653E1;3.211189270E0;-1.894378662E-1;-2.137339115E-1
3.031543360E1;3.254138947E0;-1.837434769E-1;-8.263750076E-1
3.033373683E1;2.712833881E0;1.341514587E-1;-3.037315130E0
3.035204829E1;2.443969250E0;-2.136068344E-1;-3.237572193E0
3.037036231E1;2.471667528E0;-9.488277435E-1;-1.603474259E0
3.038867610E1;2.223775148E0;-1.821896553E0;-1.955302358E0
3.040697950E1;2.078746796E0;-4.931243896E0;-4.090998650E0
3.042529566E1;2.544279337E0;-6.737069130E0;-6.509335518E0
3.044361158E1;5.093739033E0;-7.404513359E0;-5.809034348E0
3.046192506E1;7.891362190E0;-5.340757370E0;-1.028847933E0
3.048022267E1;8.143805504E0;-4.857685089E0;-8.060788512E-1
3.049853749E1;5.008183956E0;-4.814814568E0;-2.847851276E0
3.051684895E1;4.927968979E-2;-3.357592583E0;-4.761308670E0
3.053516413E1;-4.758699894E0;-2.391368866E0;-6.188265800E0
3.055347413E1;-8.578943253E0;-2.283371925E0;2.258506417E-2
3.057178645E1;-8.294954300E0;-1.493960381E0;6.530052185E0
3.059009785E1;-9.077306747E0;-1.855194092E0;3.323175907E0
3.060841310E1;-9.491703987E0;-3.923397064E0;-3.395744324E0
3.062672401E1;-4.707642555E0;-2.504349709E0;-3.128768206E0
3.064503590E1;9.585455060E-1;2.191286087E-1;1.807568669E0
3.066334785E1;4.765167236E0;1.518529892E0;4.335714340E0
3.068166120E1;4.691494942E0;1.343928337E0;4.205282211E0
3.069997010E1;3.146667957E0;9.851093292E-1;3.324447155E0
3.071828462E1;1.502744436E0;8.642864227E-1;3.128538370E0
3.073659791E1;-1.451978087E-1;1.691541195E0;3.580621243E0
3.075491072E1;-1.257649779E0;4.037135124E0;4.850626945E0
3.077322096E1;-1.793075562E0;6.397782803E0;6.203134537E0
3.079153340E1;-1.977035999E0;8.524085045E0;6.445756912E0
3.080985957E1;-1.747736454E0;1.043737698E1;5.167708397E0
3.082817042E1;-1.349277973E0;1.154479790E1;2.731873512E0
3.084648176E1;-9.937306643E-1;1.086285305E1;-5.045583248E-1
3.086479487E1;-1.493935108E0;7.064584732E0;-9.288967133E0
3.088310511E1;-1.197681427E0;-8.746929169E0;-1.332087517E1
3.090141950E1;-2.749269009E-1;-2.290644073E1;-7.285843849E0
3.091973072E1;4.814512253E0;-1.603747559E1;-6.561831474E0
3.093804273E1;2.150426626E0;-1.656023979E0;-5.597562790E0
3.095635523E1;3.246265888E0;7.208404541E0;-3.727545977E0
3.097466731E1;3.430967569E0;7.332508087E0;1.061876869E1
3.099297749E1;-2.133293152E0;-7.665967941E-1;1.790332603E1
3.101128883E1;-6.159869671E0;-1.912871170E1;-3.038066149E0
3.102960432E1;-6.392311573E0;-1.432084465E1;-1.354541302E1
3.104791279E1;-6.098631382E0;-1.522903442E-1;-1.969240189E0
3.106622877E1;-6.443924427E0;8.207728386E0;1.618060112E1
3.108454103E1;-2.589002132E0;1.048823643E1;1.117719841E1
3.110285334E1;-4.299466610E0;6.257632256E0;3.960476637E0
3.112116670E1;-4.586948872E0;8.473377228E-1;3.563735247E0
3.113947779E1;-3.580924988E0;-4.624053001E0;3.603124857E0
3.115779035E1;3.867565393E-1;-5.261156082E0;1.193445325E-1
3.117609651E1;6.529553413E0;-2.411005020E0;-4.750638008E0
3.119441609E1;9.008707047E0;9.543523788E-1;-6.062383652E0
3.121272993E1;6.327445507E0;2.313129902E0;-1.626665235E0
3.123103932E1;2.872613430E0;2.007686615E0;4.955305457E-1
3.124934693E1;4.652297497E-1;1.654476643E0;8.952380419E-1
3.126766474E1;-5.073173046E-1;2.606861115E0;7.728998661E-1
3.128597608E1;-1.204768419E0;3.284389019E0;-6.037056446E-1
3.130428944E1;-6.141657829E-1;1.928761482E0;-2.187308311E0
3.132260066E1;5.827603340E-1;-5.636262894E-1;-3.378699064E0
3.134091401E1;2.081604004E0;-1.466005325E0;-4.519683361E0
3.135922523E1;3.128197670E0;-8.062610626E-1;-4.730265617E0
3.137753736E1;3.431572676E0;-1.279722214E0;-3.260025024E0
3.139584956E1;2.675636530E0;-2.890727043E0;-2.976647139E0
3.141416334E1;3.556188583E0;-3.074920654E0;-4.007156849E0
3.143247560E1;5.425039768E0;-5.123419762E0;-5.344530582E0
3.145078639E1;4.841382027E0;-6.867630959E0;-5.094841957E0
3.146909889E1;4.962337971E0;-5.754055977E0;-2.720756531E0
3.148741206E1;5.578127861E0;-4.228057861E0;-1.090726614E0
3.150572431E1;4.127104759E0;-2.784489632E0;-1.111347318E0
3.152403565E1;1.356343985E0;-2.507002831E0;-3.665994883E0
3.154234791E1;-4.081349373E0;-3.785589218E0;-4.790666580E0
3.156066139E1;-8.539870262E0;-3.821671486E0;1.432608962E0
3.157897218E1;-9.529043198E0;-2.998037338E0;5.246074200E0
3.159728468E1;-9.745474815E0;-3.663811684E0;1.435250759E0
3.161558284E1;-8.118540764E0;-4.751411438E0;-2.961969137E0
3.163391041E1;-2.368036270E0;-2.026900291E0;-5.027582645E-1
3.165222267E1;3.032736301E0;2.897443771E-1;3.832047462E0
3.167053364E1;5.808913231E0;1.002351761E0;4.320703506E0
3.168884120E1;4.759980679E0;9.081687927E-1;3.561886311E0
3.170715943E1;2.841600657E0;5.029382706E-1;2.881825447E0
3.172547047E1;7.688678503E-1;6.755514145E-1;3.123944044E0
3.174378175E1;-1.375304937E0;2.090682507E0;4.459526062E0
3.176209498E1;-2.225551605E0;4.834230423E0;5.942634583E0
3.178040840E1;-2.440674305E0;7.525105476E0;6.700188637E0
3.179871974E1;-2.712394238E0;1.008109665E1;6.113063812E0
3.181702626E1;-2.448315859E0;1.225334549E1;4.251400471E0
3.183534059E1;-3.288141489E0;1.208195686E1;1.266818285E0
3.185365748E1;-3.077480793E0;9.458537102E0;-6.002922058E-1
3.187196876E1;-1.778448462E0;2.257513046E0;-7.666076660E0
3.189028071E1;-3.685333252E0;-1.531539917E1;-1.146128654E1
3.190859327E1;6.639510989E-1;-2.137728119E1;-8.530923843E0
3.192690376E1;6.706925869E0;-9.438188553E0;-5.426815510E0
3.194520729E1;3.032719612E0;4.113642693E0;-3.184972286E0
3.196353010E1;3.491871119E0;7.917688370E0;-1.593368053E-1
3.198184230E1;3.284638405E0;1.424335003E0;1.159864998E1
3.200015870E1;5.439269543E-2;-1.406648636E1;1.255521107E1
3.201846992E1;-3.420184255E-1;-1.510388279E1;-3.489746809E0
3.203677931E1;-4.386962891E0;-5.880656242E0;-1.759235001E1
3.205509156E1;-8.670733452E0;5.380262852E0;2.473959923E0
3.207340620E1;-7.665275574E0;1.020175171E1;1.601109695E1
3.209171614E1;-6.682056904E0;7.865071774E0;9.396460533E0
3.211002833E1;-7.589109898E0;3.259729385E0;4.940454006E0
3.212834059E1;-6.380695820E0;-9.774770737E-1;4.374090195E0
3.214665382E1;-4.382734299E0;-4.652136803E0;1.465446472E0
3.216495106E1;1.827255011E0;-4.197078705E0;-2.019977570E0
3.218327754E1;8.190254211E0;-2.247346878E0;-5.450716019E0
3.220158961E1;1.029794884E1;5.341043472E-1;-2.624731541E0
3.221990315E1;6.229222775E0;1.410812378E0;3.135804832E-1
3.223821418E1;1.940194845E0;1.911212921E0;8.824001551E-1
3.225652363E1;-2.555742264E-1;2.820072174E0;1.355160356E0
3.227483863E1;-1.149742603E0;3.614799023E0;3.533537984E-1
3.229315211E1;-6.587977409E-1;2.774057865E0;-1.719077826E0
3.231146339E1;1.517125130E0;6.380176544E-1;-2.631969213E0
3.232977540E1;2.819560289E0;-1.101716995E0;-3.359708309E0
3.234808790E1;2.166963339E0;-8.747110367E-1;-4.761031151E0
3.236640113E1;1.377746344E0;2.499866486E-1;-3.476054192E0
3.238471119E1;1.846414447E0;-4.834318161E-1;-1.267237663E0
3.240302381E1;3.066010952E0;-2.141359329E0;-2.337352037E0
3.242133692E1;4.290259361E0;-2.198338509E0;-3.189756155E0
3.243965022E1;5.510642052E0;-3.978652000E0;-3.672787666E0
3.245795680E1;5.257397652E0;-5.686208725E0;-4.232755661E0
3.247627369E1;3.252630234E0;-5.498802185E0;-2.781911373E0
3.249458619E1;3.033834457E0;-4.304183006E0;-1.879747510E0
3.251289949E1;2.659294128E0;-4.436461449E0;-2.733141661E0
3.253121046E1;2.797128439E0;-2.746068954E0;-3.305099010E0
3.254952296E1;1.232733727E0;-1.411567688E0;-5.157492638E0
3.256783393E1;-2.148352861E0;-2.415029526E0;-4.498739243E0
3.258614967E1;-5.293512344E0;-3.495276451E0;1.969836712E0
3.260445954E1;-6.604527473E0;-2.885120392E0;5.934207439E0
3.262277198E1;-7.663492203E0;-3.178909302E0;2.440092802E0
3.264108424E1;-6.205862045E0;-3.683172226E0;-2.722708225E0
3.265939747E1;-2.718685150E0;-1.853423119E0;-2.767573595E0
3.267770875E1;8.171662092E-1;1.158227921E-1;9.911972284E-1
3.269602265E1;3.352740765E0;1.293697357E0;3.165158749E0
3.271433479E1;3.781467915E0;1.506761074E0;3.823175430E0
3.273264686E1;2.498892546E0;8.132314682E-1;3.671082258E0
3.275095783E1;1.350730538E0;4.586992264E-1;3.412842512E0
3.276925764E1;3.505810499E-1;8.442602158E-1;3.912497997E0
3.278758228E1;-1.084062934E0;2.582108498E0;4.616243362E0
3.280589576E1;-1.956391454E0;5.141290665E0;5.556913376E0
3.282420704E1;-2.196583748E0;7.543600082E0;6.148796082E0
3.284252046E1;-2.520930529E0;9.878974915E0;4.830198765E0
3.286083131E1;-3.051042557E0;1.130660915E1;2.852360725E0
3.287914472E1;-2.372699738E0;1.075764847E1;1.536784172E0
3.289745130E1;-1.076068163E0;7.508658886E0;-2.767524719E-1
3.291576832E1;-8.613389730E-1;-2.014829636E0;-1.115639305E1
3.293408052E1;-4.270454645E-1;-2.241545486E1;-1.577298164E1
3.295237629E1;6.951043606E0;-2.064415741E1;-1.038160324E1
3.297070515E1;8.292286873E0;-7.925770760E0;-5.726168633E0
3.298901448E1;3.067756891E0;-9.080753326E-1;-3.151087761E0
3.300732698E1;2.959923029E0;-4.656011581E0;1.082551575E1
3.302563703E1;7.624963522E-1;-5.749382973E0;1.516265965E1
3.304395417E1;-5.653981686E0;-8.910360336E-1;3.967601538E0
3.306226753E1;-1.191454411E1;4.701869488E0;-1.492891693E1
3.308057862E1;-8.759837151E0;8.301391602E0;3.833760262E0
3.309888746E1;-6.948550701E0;7.205998421E0;1.505545235E1
3.311720320E1;-4.345716476E0;3.155877590E0;8.801953316E0
3.313551563E1;-4.678821087E0;-5.291852951E-1;3.072437286E0
3.315382667E1;-3.910558701E0;-4.549652100E0;1.187935710E0
3.317214234E1;-3.267138004E-1;-5.653140068E0;5.115911961E-1
3.319044953E1;5.740725040E0;-2.253157616E0;-9.724144936E-1
3.320875392E1;1.023114777E1;5.943565369E-1;-3.361537695E0
3.322706648E1;8.782004356E0;6.166133881E-1;-6.997202635E-1
3.324538008E1;4.851262569E0;5.061378479E-1;1.321986198E0
3.326369075E1;2.026829004E0;1.299803734E0;9.687232375E-1
3.328200263E1;2.410781384E-1;1.831462860E0;-2.980304062E-1
3.330032594E1;-1.588324785E0;2.559644699E0;1.456197500E-1
3.331863935E1;-2.131302595E0;2.671602726E0;-1.051304340E0
3.333695368E1;-1.502916098E0;2.086839676E0;-1.990979910E0
3.335525996E1;1.473703384E-1;1.188290596E0;-1.854671478E0
3.337357520E1;1.670330524E0;-1.078529358E-1;-2.154053450E0
3.339188850E1;1.714513302E0;-7.554483414E-1;-4.221355915E0
3.341018653E1;2.488535881E0;-8.417673111E-1;-3.942586899E0
3.342851197E1;3.812934160E0;-1.678919792E0;-1.156860828E0
3.344682423E1;4.639866352E0;-2.622336388E0;-2.290098906E0
3.346513746E1;6.117607117E0;-4.184231758E0;-4.577262878E0
3.348344990E1;6.414589882E0;-6.482281685E0;-4.943098068E0
3.350176081E1;6.086513519E0;-6.484588623E0;-3.599529743E0
3.352007325E1;5.377351761E0;-4.613140106E0;-2.591587782E0
3.353838209E1;4.456875801E0;-4.183060646E0;-1.490746140E0
3.355669801E1;1.290246487E0;-4.912084579E0;-2.027358294E0
3.357501002E1;-2.119603872E0;-4.876740456E0;-3.633432150E0
3.359332234E1;-7.065574646E0;-3.666283607E0;-3.144069910E0
3.361163575E1;-9.594347000E0;-2.412692070E0;3.916434288E0
3.362994703E1;-9.888291359E0;-1.552903175E0;5.401736736E0
3.364825929E1;-1.069428349E1;-2.284317017E0;-8.486418724E-1
3.366656544E1;-7.678804398E0;-1.925779343E0;-3.679562092E0
3.368488478E1;-1.795910597E0;4.320783615E-1;-1.422135830E-1
3.370318202E1;4.635735512E0;1.881800652E0;3.779682636E0
3.372149726E1;6.357637882E0;1.178011894E0;4.083984375E0
3.373980909E1;4.790981770E0;3.169717789E-1;3.460912704E0
3.375813679E1;3.004157066E0;1.782531738E-1;2.906938553E0
3.377644801E1;1.218348980E0;2.135238647E-1;3.104199409E0
3.379475624E1;-7.338234186E-1;1.455605507E0;4.096083641E0
3.381306868E1;-2.087786674E0;3.952039242E0;5.977802277E0
3.383138307E1;-2.498233080E0;6.599280834E0;7.292979717E0
3.384968312E1;-2.610068321E0;9.115367889E0;6.132798195E0
3.386800654E1;-3.483452320E0;1.066342354E1;3.510863066E0
3.388631892E1;-1.802383542E0;1.128250313E1;1.829138994E0
3.390463203E1;3.890129328E-1;9.899524689E0;2.275035381E-1
3.392294361E1;-1.065521955E0;4.891360760E0;-6.561988831E0
3.394125556E1;-2.004725456E0;-1.135822582E1;-1.554264069E1
3.395955659E1;1.694779754E0;-2.327180481E1;-1.080541229E1
3.397786988E1;9.413889885E0;-1.544097328E1;-6.690924644E0
3.399618110E1;4.945270061E0;-2.113652229E0;-3.051991224E0
3.401450459E1;4.918918610E0;6.887537003E0;-7.733509541E-1
3.403282368E1;3.551168919E0;8.964382172E0;1.182752991E1
3.405113014E1;-3.562848330E0;2.373206615E0;1.647220039E1
3.406944160E1;-1.135019684E1;-1.477361393E1;5.133247852E0
3.408775392E1;-1.015961266E1;-1.625379181E1;-1.589832783E1
3.410606593E1;-5.938592434E0;-3.124096870E0;-6.481741905E0
3.412436878E1;-6.387467861E0;9.119819641E0;1.274252701E1
3.414267933E1;-3.283229828E0;1.258873653E1;1.250083351E1
3.416099220E1;-3.453219891E0;7.448474884E0;8.437086105E0
3.417930622E1;-3.700314760E0;8.554258347E-1;6.011247158E0
3.419761781E1;-4.951593399E0;-6.429390907E0;3.507000685E0
3.421592628E1;-2.112789869E0;-6.578461647E0;1.890567899E0
3.423424122E1;4.999013901E0;-3.884465218E0;-1.548790097E0
3.425255287E1;1.173639488E1;-9.677829742E-1;-7.712445259E0
3.427086781E1;1.022449017E1;1.573284626E0;-2.603040218E0
3.428917665E1;5.520507336E0;1.638482094E0;-1.030611321E-1
3.430749043E1;1.512878180E0;1.669984818E0;2.663797140E-2
3.432580262E1;-5.390276909E-1;2.647934914E0;9.944226742E-1
3.434411567E1;-1.621584415E0;3.254295349E0;3.606044650E-1
3.436242652E1;-1.870824099E0;1.995708466E0;-1.859552026E0
3.438073884E1;2.173671722E-1;3.319559097E-1;-3.523418427E0
3.439906227E1;2.353001595E0;-4.625310898E-1;-4.022631645E0
3.441737580E1;3.271081448E0;-4.270753860E-1;-3.744968891E0
3.443568122E1;4.456248760E0;-4.091959000E-1;-2.762333870E0
3.445399665E1;5.399129868E0;-2.057169914E0;-1.717478633E0
3.447231159E1;4.854794502E0;-2.364721298E0;-2.385990858E0
3.449062476E1;5.002510071E0;-3.359724045E0;-4.384576321E0
3.450893604E1;4.230803013E0;-4.821461678E0;-4.935705185E0
3.452724824E1;2.761652470E0;-5.621790886E0;-4.626336575E0
3.454556050E1;4.507727623E0;-4.714383125E0;-2.550559044E0
3.456387287E1;5.415300369E0;-3.017337799E0;-1.592425942E0
3.458218611E1;4.242308140E0;-2.716047287E0;-3.508067608E0
3.460049757E1;1.539622307E0;-3.052582741E0;-5.801339626E0
3.461880958E1;-3.018816710E0;-3.991175652E0;-2.613233566E0
3.463712330E1;-5.232676506E0;-3.948422432E0;4.499155998E0
3.465543458E1;-7.645981789E0;-3.719493866E0;5.715984821E0
3.467374659E1;-8.858412743E0;-5.165936470E0;-1.100163102E0
3.469205891E1;-5.106092453E0;-3.930958748E0;-5.300061226E0
3.471037232E1;9.112770557E-1;-1.464805603E-1;1.746121764E0
3.472868330E1;4.215115547E0;1.307397842E0;4.583236694E0
3.474699586E1;4.668612957E0;1.006554604E0;3.229636908E0
3.476530567E1;3.772686481E0;4.140586853E-1;2.613255024E0
3.478362123E1;1.817013741E0;4.752759933E-1;2.877059698E0
3.480193257E1;3.116675019E-1;1.214696884E0;3.143557072E0
3.482024501E1;-1.434171200E0;3.005290031E0;4.109073162E0
3.483855714E1;-2.098573685E0;5.330853939E0;5.517365456E0
3.485687068E1;-2.488178730E0;7.440815449E0;6.040806770E0
3.487518165E1;-2.861450672E0;9.332246780E0;4.587074280E0
3.489349507E1;-3.033513069E0;1.020532799E1;2.588753223E0
3.491180622E1;-2.484705925E0;9.476751328E0;8.366754055E-1
3.493011567E1;-2.288355112E0;6.059370041E0;-1.380930424E0
3.494842604E1;-2.741527557E0;-4.279438972E0;-1.300306892E1
3.496674299E1;-1.001215577E0;-2.011030960E1;-1.183768082E1
3.498505512E1;8.845586777E0;-1.600365829E1;-7.292415619E0
3.500337159E1;7.598947525E0;-3.108888626E0;-5.027887821E0
3.502167970E1;8.533376694E0;6.668268681E0;1.480647683E0
3.503999195E1;6.299314022E0;4.165426731E0;2.023450279E1
3.505830421E1;-4.514464855E0;-1.238729477E1;1.685218239E1
3.507661195E1;-5.098506451E0;-1.300287724E1;-5.567131519E0
3.509492872E1;-4.224326134E0;-5.545347214E0;-2.445234871E1
3.511324122E1;-8.313656807E0;4.142506599E0;1.197227955E0
3.513155372E1;-9.872819901E0;8.741336823E0;2.034189987E1
3.514986677E1;-6.249229431E0;7.785031319E0;9.185560226E0
3.516817793E1;-5.374248505E0;2.252936363E0;5.542652130E0
3.518649018E1;-5.261927128E0;-5.396812439E0;3.995837450E0
3.520480159E1;-1.812882781E0;-7.407477379E0;1.960323453E0
3.522311500E1;4.878440857E0;-3.531152725E0;2.034907341E-1
3.524142701E1;1.068867397E1;4.966812134E-1;-6.998983383E0
3.525972499E1;8.921983719E0;2.361452103E0;-3.419453859E0
3.527805152E1;4.660916805E0;3.393486500E0;-4.010647535E-3
3.529636805E1;4.834830761E-1;3.672338009E0;6.002337337E-1
3.531467628E1;-1.381809711E0;3.101922989E0;8.830214143E-1
3.533298762E1;-2.524756670E0;3.160561562E0;9.108198881E-1
3.535130085E1;-1.900843620E0;2.383882523E0;-1.535572052E0
3.536961378E1;3.702208996E-1;7.725505829E-1;-3.393336296E0
3.538792530E1;1.765585661E0;-2.186965942E-1;-3.300549984E0
3.540623884E1;2.451960325E0;-5.267810822E-2;-2.915300369E0
3.542454981E1;2.121056318E0;5.779933929E-2;-2.044555187E0
3.544286323E1;1.691874743E0;-5.392866135E-1;-1.141669273E0
3.546117750E1;3.303855896E0;-1.371159554E0;-1.876484871E0
3.547948683E1;6.155498505E0;-4.716891289E0;-3.354145765E0
3.549779914E1;7.215021133E0;-6.763497353E0;-4.991124630E0
3.551611262E1;6.110139847E0;-6.928571701E0;-5.288272858E0
3.553442475E1;4.696105957E0;-5.413793564E0;-1.786365509E0
3.555273585E1;3.679438591E0;-4.989870071E0;-1.592158914E0
3.557104792E1;1.299747705E0;-4.543489456E0;-2.510491848E0
3.558935670E1;-1.709483624E0;-3.013729095E0;-4.730100155E0
3.560766963E1;-4.643432617E0;-2.042630196E0;-4.180707932E0
3.562598487E1;-6.808176994E0;-2.163025856E0;2.631299257E0
3.564429719E1;-8.200101852E0;-2.163967133E0;6.005433559E0
3.566261189E1;-8.575126648E0;-3.042405128E0;1.631090641E-1
3.568092152E1;-6.236902714E0;-3.964323044E0;-4.659494877E0
3.569923628E1;-1.443600535E0;-2.295436859E0;-2.654913187E0
3.571754151E1;4.773204327E0;-2.848577499E-1;2.191648483E0
3.573585975E1;6.589955330E0;6.394262314E-1;3.385902882E0
3.575417097E1;4.847180367E0;1.470023155E0;3.239194870E0
3.577248316E1;3.266766548E0;2.334927082E0;3.571065903E0
3.579079542E1;1.515655518E0;2.555846214E0;3.829954147E0
3.580910865E1;-1.087010205E-1;2.843034267E0;4.363382339E0
3.582741969E1;-1.480022311E0;3.857038498E0;5.858750343E0
3.584572639E1;-1.719834089E0;5.484047413E0;7.193634987E0
3.586404444E1;-1.733488083E0;7.233592033E0;7.222625732E0
3.588235774E1;-2.508079529E0;8.860247612E0;5.872661591E0
3.590066896E1;-2.662085533E0;1.053213882E1;1.799451351E0
3.591898127E1;-3.652219057E0;1.004906464E1;-6.793375015E-1
3.593729371E1;-3.308609486E0;5.519265652E0;-4.940693855E0
3.595560719E1;-2.991961718E0;-7.389038086E0;-1.694688988E1
3.597391700E1;-4.959321022E-1;-1.656189728E1;-9.188047409E0
3.599223048E1;4.464070797E0;-1.475015163E1;-7.281017303E0
3.601054249E1;3.170732021E0;-3.435037613E0;-4.345493317E0
3.602885603E1;3.563416481E0;4.982173920E0;-6.081205845E0
3.604716645E1;3.721098423E0;4.021509647E0;5.302918911E0
3.606547926E1;6.002199650E-1;-2.962399483E0;1.733913612E1
3.608379182E1;-5.484402657E0;-1.660816193E1;5.625451088E0
3.610210517E1;-1.026747417E1;-1.195528412E1;-1.440057373E1
3.612041633E1;-8.228397369E0;1.023308754E0;-4.091273785E0
3.613872859E1;-7.993641376E0;8.454016685E0;1.816679764E1
3.615704072E1;-4.118034840E0;1.046231365E1;1.213185120E1
3.617535151E1;-6.047051430E0;5.864812851E0;3.972900867E0
3.619366560E1;-4.964544773E0;1.031118393E0;4.657018661E0
3.621197785E1;-5.532019615E0;-4.185066223E0;4.570110798E0
3.623029005E1;-2.595640659E0;-6.115267754E0;5.556926131E-1
3.624860352E1;4.522261620E0;-4.178071022E0;-3.315876245E0
3.626691438E1;9.812887192E0;-4.257307053E-1;-5.612414837E0
3.628522712E1;9.602198601E0;2.639160633E0;-1.989387751E0
3.630354023E1;6.155306816E0;2.759272575E0;-4.911321402E-2
3.632184468E1;1.793445349E0;2.145090103E0;5.462975502E-1
3.634016371E1;-8.069505692E-1;2.526344299E0;8.710631132E-1
3.635847126E1;-2.104426622E0;2.788663864E0;-5.305059552E-1
3.637678816E1;-2.005004406E0;1.749225616E0;-3.070528507E0
3.639510163E1;9.223568439E-1;2.856197357E-1;-4.753216267E0
3.641341139E1;3.497579336E0;-1.344098091E0;-5.394917488E0
3.643172517E1;4.882366180E0;-1.299136162E0;-4.082869530E0
3.645003645E1;5.247039795E0;-1.618913651E0;-1.816919446E0
3.646835084E1;3.551413774E0;-2.519948959E0;-2.608987570E0
3.648665577E1;2.563458920E0;-2.656455040E0;-3.924711466E0
3.650497419E1;2.784770012E0;-4.002575874E0;-4.800984383E0
3.652328645E1;1.635724306E0;-5.302245140E0;-5.407805443E0
3.654159986E1;2.496100903E0;-5.022341728E0;-3.277401924E0
3.655991090E1;6.167037010E0;-3.669895172E0;-1.147479892E0
3.657822315E1;6.222329140E0;-2.581341743E0;-2.410720348E0
3.659653541E1;3.644688606E0;-1.751683235E0;-5.246771812E0
3.661484767E1;-1.267092228E-1;-3.795049667E0;-5.591380596E0
3.663316017E1;-4.352766991E0;-5.637708664E0;7.017949224E-2
3.665147254E1;-6.010660172E0;-4.657147408E0;6.072174072E0
3.666978468E1;-7.778904915E0;-4.411687851E0;4.413621902E0
3.668809785E1;-8.100025177E0;-5.863538742E0;-4.680438995E0
3.670639808E1;-3.703417778E0;-4.340452194E0;-4.085160255E0
3.672471186E1;3.029543400E0;-5.968742371E-1;3.234097958E0
3.674302302E1;5.429968834E0;9.704713821E-1;5.231008530E0
3.676133674E1;4.400327682E0;1.177083969E0;4.748081207E0
3.677966102E1;2.691222668E0;1.184146881E0;3.575142145E0
3.679797077E1;5.555782318E-1;1.185115814E0;3.375063896E0
3.681628651E1;-1.126420975E0;2.127123833E0;4.685608864E0
3.683459651E1;-1.592078567E0;4.212388515E0;6.337505341E0
3.685290724E1;-1.968301058E0;6.825634003E0;6.868900299E0
3.687121974E1;-2.677256584E0;9.213232994E0;6.430109024E0
3.688952003E1;-3.419899702E0;1.143803692E1;4.513237476E0
3.690784547E1;-4.278271198E0;1.231307411E1;2.106331348E0
3.692615650E1;-3.162250280E0;1.030173206E1;6.578700542E-1
3.694446705E1;-1.903389573E0;5.637768745E0;-5.247323990E0
3.696279396E1;-1.494170189E0;-8.234342575E0;-1.811592102E1
3.698108369E1;1.219362974E0;-2.155936813E1;-1.120880699E1
3.699939436E1;7.729197025E0;-1.783339500E1;-5.706265926E0
3.701771784E1;4.447881222E0;-2.293783188E0;-6.346897125E0
3.703603004E1;3.253892422E0;2.223251343E0;1.242613316E0
3.705434266E1;3.372739315E0;-4.470516205E0;1.663560677E1
3.707265486E1;-1.264996052E0;-1.144874001E1;1.253329563E1
3.709096681E1;-7.715717793E0;-6.592444420E0;-7.826362610E0
3.710927937E1;-9.217860222E0;2.654339314E0;-1.497352314E1
3.712758491E1;-1.069175529E1;7.783385277E0;1.591869354E1
3.714590382E1;-6.057803631E0;1.032087326E1;1.228346157E1
3.716421607E1;-6.056992054E0;6.549232960E0;3.597776413E0
3.718252839E1;-4.937279701E0;1.177935600E0;4.887471676E0
3.720084175E1;-5.083731651E0;-6.787231445E0;3.910348654E0
3.721915284E1;7.035410404E-1;-9.520113945E0;-4.244263172E-1
3.723746528E1;7.551208496E0;-3.211978912E0;-1.314758062E0
3.725577125E1;1.253183365E1;1.482644081E0;-5.720047951E0
3.727409114E1;1.070425320E1;3.194140434E0;-1.481991887E0
3.729240229E1;5.671834946E0;3.599966049E0;2.561480999E-1
3.731071436E1;8.675894737E-1;2.943838120E0;1.990212202E-1
3.732901252E1;-2.288742542E0;2.751473427E0;9.459686875E-1
3.734732966E1;-3.319757938E0;3.049686432E0;-6.298781633E-1
3.736564155E1;-2.775499821E0;2.726629734E0;-2.736100912E0
3.738395185E1;-1.212340117E0;2.005777359E-1;-3.850416183E0
3.740226441E1;1.338757515E0;-1.016977310E0;-4.379747391E0
3.742059199E1;2.754643679E0;-7.815790176E-1;-3.375737190E0
3.743890040E1;3.700134754E0;-8.394908905E-1;-1.142239332E0
3.745721247E1;3.592116356E0;-2.034310341E0;-1.285459518E0
3.747552467E1;3.513474464E0;-2.914203644E0;-3.310498714E0
3.749383820E1;4.070949554E0;-5.037761688E0;-4.547890186E0
3.751215040E1;3.946449041E0;-6.539130211E0;-4.863553047E0
3.753046144E1;4.716966629E0;-5.982920647E0;-2.188383341E0
3.754877394E1;5.016700745E0;-5.325586319E0;-5.215395689E-1
