"Time (s)";"Linear Acceleration x (m/s^2)";"Linear Acceleration y (m/s^2)";"Linear Acceleration z (m/s^2)"
2.067821000E-2;-5.051049232E0;7.751789093E-1;-1.815657616E0
5.729902000E-2;-3.933956623E0;1.341506243E0;-6.971645355E-1
7.562361700E-2;-3.849820137E0;1.270207167E0;1.433458328E-1
9.393136700E-2;-4.042133808E0;9.547748566E-1;5.757675171E-1
1.122416800E-1;-4.253668785E0;6.999597549E-1;-2.542762756E-1
1.305530930E-1;-4.549867630E0;7.641358376E-1;-1.247267723E0
1.488620640E-1;-4.539443970E0;7.520074844E-1;-1.435445786E0
1.671722550E-1;-4.260608673E0;6.717553139E-1;-5.355024338E-1
1.854826910E-1;-4.146446228E0;5.455055237E-1;2.004327774E-1
2.037944090E-1;-4.297435284E0;4.977095127E-1;5.427007675E-1
2.221032580E-1;-4.261055946E0;4.118187428E-1;3.198366165E-1
2.404138160E-1;-4.381311893E0;7.045314312E-1;1.680555344E-1
2.587237020E-1;-4.521173477E0;7.493145466E-1;3.723697662E-1
2.770345040E-1;-4.908294201E0;7.887495756E-1;1.290467262E0
2.953448180E-1;-4.646139145E0;9.618746638E-1;1.784620285E0
3.136548260E-1;-3.127533674E0;3.879184723E-1;1.381362915E0
3.319663610E-1;-2.424011946E0;1.683630794E-1;1.712718010E0
3.502764920E-1;-2.283581495E0;2.948680520E-2;1.706395149E0
3.685860730E-1;-2.316587210E0;-1.358036101E-1;1.212122917E0
3.868915040E-1;-2.751542330E0;-2.037220448E-1;-2.590494156E-1
4.052064560E-1;-3.339460373E0;-1.196342558E-1;-1.373993874E0
4.235171970E-1;-4.056253433E0;-2.207303047E-1;-1.177782059E0
4.418261070E-1;-4.641464233E0;-2.954455316E-1;-8.091259003E-1
4.601384960E-1;-4.657594681E0;-8.807585835E-1;-2.138179779E0
4.784479550E-1;-3.752985001E0;-1.036316395E0;-2.304316044E0
4.967582080E-1;-3.385836601E0;-6.778714657E-1;-5.786514282E-2
5.150630900E-1;-3.273145914E0;-2.107403576E-1;1.493151665E0
5.333749290E-1;-3.345966339E0;-4.495481551E-1;1.305154800E0
5.516891490E-1;-4.147619247E0;-9.897964597E-1;8.322057724E-1
5.699997680E-1;-4.565171719E0;-1.384450436E0;3.975324631E-1
5.883100820E-1;-4.742145061E0;-1.366963863E0;7.628898621E-1
6.066203950E-1;-4.938319206E0;-1.493229389E0;9.890165329E-1
6.249306480E-1;-4.664279461E0;-2.376445293E0;5.881156921E-1
6.432361400E-1;-5.396870613E0;-1.951661468E0;-5.378150940E-2
6.615513370E-1;-5.169975281E0;-8.210643530E-1;-4.374713898E-1
6.798614060E-1;-4.317340851E0;-6.940771341E-1;5.271854401E-1
6.981618930E-1;-4.352134705E0;-4.972280264E-1;1.868425369E0
7.164822170E-1;-4.065043926E0;-4.159251451E-1;2.299745560E0
7.347928360E-1;-3.721094370E0;-1.449522972E-1;2.682421684E0
7.531029050E-1;-3.335579395E0;9.521079063E-2;2.508157730E0
7.714146840E-1;-3.469717503E0;7.688879967E-2;1.866236687E0
7.897234710E-1;-3.548620224E0;-5.492734909E-2;1.369096756E0
8.080338450E-1;-3.422180653E0;-2.396879196E-1;1.332198143E0
8.263440370E-1;-3.233027458E0;-3.401075602E-1;1.971476555E0
8.446547170E-1;-2.992421389E0;-4.871726036E-1;2.327217102E0
8.629649700E-1;-3.269711494E0;-6.168487072E-1;1.738026619E0
8.812750390E-1;-3.518142700E0;-6.930575371E-1;4.251165390E-1
8.995854140E-1;-3.178866148E0;-5.943629742E-1;-3.929815292E-1
9.178962160E-1;-2.729854345E0;-5.701065063E-1;-6.251487732E-1
9.362062250E-1;-2.481803656E0;-5.171885490E-1;-1.181598186E0
9.545168440E-1;-2.651846170E0;-6.350914240E-1;-2.085325241E0
9.728283170E-1;-3.134713173E0;-9.929958582E-1;-2.613703728E0
9.911372270E-1;-3.078857660E0;-7.428600192E-1;-2.549660206E0
1.009447785E0;-3.626336098E0;-2.441293597E-1;-2.017286301E0
1.027758038E0;-2.620186329E0;1.324289441E-1;-1.449169636E0
1.046056755E0;-2.938709259E-1;5.865405798E-1;-5.944309235E-1
1.064378665E0;6.847300529E-1;8.046025634E-1;-2.929930687E-1
1.082687575E0;9.428014755E-1;8.752877712E-1;-4.027581215E-1
1.100998438E0;-2.704796791E-1;9.831016064E-1;-7.273707390E-1
1.119309667E0;-1.620417595E0;1.320546508E0;-1.272682667E0
1.137620164E0;-2.331986427E0;7.563046217E-1;-2.089845657E0
1.155925656E0;-2.837904930E0;1.531153917E-1;-2.697004795E0
1.174240608E0;-2.041599274E0;3.694229126E-1;-3.480890751E0
1.192550922E0;-1.489476204E0;-3.762699366E-1;-2.128726959E0
1.210861480E0;-1.676942825E0;-1.211646318E0;2.193915844E-2
1.229171428E0;-1.022019386E0;-1.553087473E0;2.301079750E0
1.247484916E0;6.710672379E-1;-1.632859707E0;4.138232231E0
1.265792116E0;2.923454285E0;-1.043561935E0;5.491922379E0
1.284096631E0;4.735592842E0;-1.050216675E0;5.621306896E0
1.302412988E0;5.506462097E0;-1.514490604E0;4.793351650E0
1.320723546E0;6.157074451E0;-1.458338737E0;2.848525763E0
1.339033371E0;8.021320343E0;-1.224773884E0;1.159570694E0
1.357344234E0;9.630314827E0;-1.229375839E0;6.855170727E-1
1.375654243E0;1.076191044E1;-6.470775604E-2;1.183133125E0
1.393964861E0;9.922378540E0;2.916431427E-1;3.215842009E0
1.412276579E0;9.695398331E0;-6.033935547E-1;2.625225544E0
1.430585489E0;1.013916779E1;-5.426979065E-2;2.232541084E0
1.448895986E0;1.018482208E1;4.146718979E-1;2.275995016E0
1.467206361E0;9.787631035E0;4.994640350E-1;1.687690616E0
1.485516613E0;9.582440376E0;3.069343567E-1;1.062663794E0
1.503826988E0;8.390496254E0;-5.292510986E-2;1.542315006E0
1.522137241E0;7.726363182E0;-4.665088654E-2;2.493286610E0
1.540448592E0;7.411001205E0;7.202968597E-1;2.816345453E0
1.558758173E0;6.967352867E0;1.502253532E0;2.605710983E0
1.577068365E0;6.571603775E0;1.923150063E0;2.071787357E0
1.595378801E0;6.548627377E0;1.551339149E0;2.023655653E0
1.613690030E0;6.313604355E0;1.418828964E-1;2.491681814E0
1.631999367E0;5.860029697E0;1.592512131E-1;2.129915476E0
1.650309742E0;6.724299431E0;9.103679657E-1;2.400950670E0
1.668620056E0;7.053326607E0;1.512030125E0;2.113747120E0
1.686930370E0;6.926293850E0;1.859686375E0;1.872248173E0
1.705241538E0;6.503054142E0;1.549060822E0;1.488914013E0
1.723544893E0;5.608172417E0;6.048212051E-1;1.424878359E0
1.741861494E0;4.919632912E0;-1.564188004E-1;1.996359706E0
1.760171930E0;4.611907005E0;-1.722564697E-1;2.258608103E0
1.778481694E0;4.183937550E0;-3.642482758E-1;1.841167450E0
1.796787613E0;3.766107082E0;-5.619440079E-1;2.108069181E0
1.815091152E0;3.991976738E0;-4.222135544E-1;2.107482433E0
1.833408973E0;4.243307590E0;-1.790809631E-2;1.488422155E0
1.851722277E0;4.191548824E0;-5.486583710E-2;9.226634502E-1
1.870033751E0;3.879088879E0;-1.309461594E-1;7.097380161E-1
1.888344309E0;3.538476706E0;-1.732625961E-1;3.799927235E-1
1.906654867E0;2.961804390E0;-8.283691406E-1;7.335170507E-1
1.924959077E0;2.901014805E0;-1.199114799E0;8.807557821E-1
1.943271527E0;5.249015331E0;-8.824491501E-1;2.836043119E0
1.961587394E0;6.724873066E0;7.418823242E-1;1.117513537E0
1.979898625E0;7.431228638E0;1.754654884E0;1.615480304E0
1.998206435E0;5.476919651E0;5.958700180E-1;1.895695210E0
2.016516383E0;4.549198151E0;-5.277271271E-1;1.418905258E0
2.034827063E0;4.977308273E0;-1.127281189E-1;5.487387180E-1
2.053138720E0;4.447001457E0;2.295484543E-1;9.169828892E-1
2.071447813E0;3.034458876E0;-2.469539642E-2;1.495443583E0
2.089757271E0;6.138830781E-1;2.197589874E-1;7.260396957E0
2.108068562E0;1.293276072E0;-3.682203293E-1;3.252665043E0
2.126378875E0;4.423200190E-1;3.241186142E-1;2.288274288E0
2.144689066E0;1.057772875E0;6.689167023E-2;4.605913162E0
2.162984853E0;5.390634060E0;-6.694221497E-1;5.955403328E0
2.181311220E0;6.920133114E0;3.519773483E-1;2.730745316E0
2.199620374E0;6.403854370E0;-1.224126816E-1;3.855524063E-1
2.217930382E0;4.624873161E0;-4.500961304E-1;-1.441562295E0
2.236241306E0;3.435363531E0;2.711095810E-1;-1.286881804E0
2.254551376E0;3.590330124E0;6.687431335E-1;-7.815002203E-1
2.272861629E0;2.644079447E0;2.548809052E-1;-1.676326036E0
2.291171942E0;2.182938099E0;-8.041172028E-1;-9.692152739E-1
2.309482500E0;7.481528521E-1;-1.417619705E0;1.934054971E0
2.327792814E0;2.609064817E0;-9.266576767E-1;1.782217264E0
2.346103433E0;2.532376051E0;-3.426704407E-1;8.592216969E-1
2.364407338E0;1.274058461E0;2.589006424E-1;5.185347795E-2
2.382723694E0;7.012567520E-1;1.102687836E0;-6.239449978E-1
2.401033336E0;1.367123246E0;7.807998657E-1;-3.691554666E-1
2.419344383E0;1.840751648E0;1.367082596E-1;2.294868827E-1
2.437654941E0;2.208504677E0;1.467618942E-1;-1.449159384E-1
2.455965315E0;2.219368219E0;4.853181839E-1;-6.660548449E-1
2.474275568E0;1.445333481E0;7.575063705E-1;-5.502684712E-1
2.492584966E0;1.592483401E0;7.156333923E-1;-2.750911713E-1
2.510896440E0;1.720736504E0;7.803344727E-1;1.512652636E-1
2.529208218E0;2.637320042E0;5.413980484E-1;1.431932330E0
2.547517067E0;2.267154932E0;-3.290596008E-1;2.366461277E0
2.565822925E0;6.427011490E-1;-9.147148132E-1;9.887342453E-1
2.584137878E0;-1.875000000E-1;-1.547463417E0;-3.221387863E-1
2.602439708E0;1.536834121E0;-8.198566437E-1;1.783354640E0
2.620758566E0;3.378787994E0;3.285598755E-1;4.499232292E0
2.639068941E0;3.108624697E0;-3.704586029E-1;4.468456268E0
2.657379072E0;2.165943623E0;-3.747253418E-1;4.108932018E0
2.675689752E0;2.224659204E0;2.962408066E-1;4.064865589E0
2.694001225E0;3.424758434E0;1.119935989E0;3.941955805E0
2.712310379E0;4.977100372E0;5.180759430E-1;3.618961334E0
2.730623562E0;6.751831055E0;4.527034760E-1;3.225322247E0
2.748931251E0;7.681797981E0;6.122407913E-1;5.382504940E0
2.767241564E0;5.850373268E0;-1.468589783E0;6.640103817E0
2.785551878E0;4.330775738E0;-3.361145973E0;5.392869949E0
2.803861826E0;4.948482990E0;-2.135375023E0;2.773227453E0
2.822173849E0;7.136025429E0;1.067147255E0;1.042659283E0
2.840482697E0;8.121296883E0;2.596305370E0;-6.515223980E-1
2.858793072E0;8.090429306E0;2.651283741E0;-2.614426851E0
2.877103691E0;8.134539604E0;3.388914585E0;-3.977171421E0
2.895414188E0;9.840279579E0;5.138879776E0;-4.738423347E0
2.913724563E0;1.107105732E1;5.923173428E0;-4.853087425E0
2.932034815E0;9.449229240E0;4.840897560E0;-4.896631241E0
2.950346106E0;7.544996738E0;4.343042850E0;-5.382462025E0
2.968655443E0;8.478713036E0;3.629126549E0;-4.605021000E0
2.986965817E0;4.749919891E0;1.202446938E0;-3.263572216E0
3.005271493E0;-2.391649246E0;-1.390784740E0;-1.799432278E0
3.023586750E0;-1.586916924E0;-2.160358429E0;6.785917282E-2
3.041885345E0;2.228558540E0;-4.263348579E-1;6.972813606E-1
3.060208172E0;3.235569477E0;6.173710823E-1;-1.386288166E0
3.078517874E0;3.351993084E0;7.188782692E-1;-1.034215927E0
3.096828127E0;4.947226524E0;1.968450546E-1;9.355921745E-1
3.115138441E0;7.558257580E0;8.393001556E-1;3.441836834E0
3.133442773E0;7.832092762E0;2.996115685E-1;4.387145996E0
3.151759068E0;4.655453205E0;-1.019740105E0;4.585829735E0
3.170069687E0;2.994321823E0;-1.881330490E0;4.357283592E0
3.188380001E0;2.525031090E0;-9.326176643E-1;3.483176231E0
3.206685676E0;3.600772381E0;2.530446053E-1;4.198043346E0
3.225000751E0;3.976400375E0;2.132567406E0;5.383972645E0
3.243307036E0;2.715822697E0;2.091591358E0;6.553468704E0
3.261621561E0;3.326482773E-1;1.345774174E0;6.755589962E0
3.279921438E0;-2.001482010E0;1.306085110E0;5.598617077E0
3.298230470E0;-2.696686268E0;1.335278511E0;3.592344522E0
3.316543775E0;-2.217577457E0;1.789292812E0;1.884901404E0
3.334862938E0;-1.728062630E-1;2.147828579E0;1.908787012E0
3.353173252E0;2.789340019E0;2.470830441E0;2.851545334E0
3.371483627E0;3.350969315E0;2.718368053E0;4.268863678E0
3.389794184E0;2.879336357E0;2.978218555E0;5.039743423E0
3.408104254E0;2.970341206E0;3.167696238E0;2.848071098E0
3.426414812E0;2.523287773E0;3.123209476E0;4.232645035E-2
3.444725064E0;2.642121315E-1;2.568949699E0;-7.947874069E-1
3.463036598E0;7.975077629E-1;2.536704540E0;3.040941477E0
3.481345935E0;2.748894691E-1;7.807464600E-1;3.299704075E0
3.499656005E0;-1.343750954E0;1.240220070E0;2.850316763E0
3.517966624E0;-1.707794189E0;2.146168709E0;2.532913923E0
3.536276877E0;-1.118515491E0;2.553284645E0;2.490550995E0
3.554587495E0;8.556790352E-1;2.769761086E0;3.276736498E0
3.572897565E0;2.658223629E0;3.094649315E0;4.600228310E0
3.591209344E0;3.437342644E0;2.484592915E0;3.993087530E0
3.609518681E0;2.274892330E0;1.463148594E0;3.476846218E0
3.627828750E0;1.652593136E0;5.451002121E-1;2.264168262E0
3.646134364E0;2.605487823E0;1.404800415E-1;2.298319817E0
3.664449622E0;3.626919746E0;5.070996284E-1;2.731256962E0
3.682759936E0;3.771364212E0;1.084512711E0;1.737008691E0
3.701069518E0;3.388940334E0;1.588058949E0;9.578067064E-1
3.719381112E0;3.337802887E0;1.876872540E0;7.728142738E-1
3.737691060E0;3.601069927E0;2.347248077E0;1.187820435E0
3.756001435E0;4.135883331E0;1.661243439E0;1.094079256E0
3.774305889E0;5.257945061E0;2.869701385E-1;1.424612880E0
3.792622367E0;6.290932655E0;-5.404262543E-1;2.880876303E0
3.810932742E0;5.898346901E0;-1.022295952E0;4.176160812E0
3.829242934E0;3.713067532E0;-4.453735352E-1;4.997180939E0
3.847553431E0;8.600635529E-1;3.686242104E-1;4.463631630E0
3.865863805E0;-1.300144196E-1;8.082480431E-1;4.429467201E0
3.884174302E0;4.356946945E-1;9.592280388E-1;4.915246964E0
3.902483151E0;-1.187098980E0;3.955574036E-1;4.754466534E0
3.920794869E0;-1.759032488E0;1.491357803E0;5.467091560E0
3.939104999E0;-1.881762981E0;2.731805325E0;5.785232067E0
3.957415618E0;-1.648634434E0;2.815589905E0;4.138622284E0
3.975725871E0;-8.915308714E-1;-6.366427422E0;4.877882004E-1
3.994036429E0;4.050873280E0;-1.949161720E1;-8.520178795E-1
4.012346804E0;6.004189014E0;-1.677714539E1;3.191929817E0
4.030657117E0;5.467931747E0;-8.752285004E0;6.925433159E0
4.048967797E0;2.806171179E0;-2.822478771E0;7.606508255E0
4.067277989E0;1.048541069E-1;3.851523399E-1;6.381497383E0
4.085588486E0;-1.242296696E0;2.448075294E0;4.706733704E0
4.103899776E0;-1.178694963E0;3.723247528E0;4.635334015E0
4.122197150E0;-5.456271172E-1;4.166481495E0;5.540417194E0
4.140519427E0;-6.798651218E-1;3.537186146E0;6.161534309E0
4.158829802E0;-2.110641479E0;2.437968254E0;6.391125679E0
4.177139993E0;-3.425167084E0;1.564733505E0;6.133658409E0
4.195450673E0;-4.829850674E0;1.287155151E-1;4.673575878E0
4.213761231E0;-5.132715225E0;-5.181970596E-1;1.364483833E0
4.232072705E0;-1.690350056E0;-4.778566360E-1;-3.039545536E0
4.250381859E0;5.032221317E0;-9.088344574E-1;-4.706212997E0
4.268692111E0;9.318296432E0;-3.400823593E0;-9.290695190E-3
4.286997603E0;1.172290230E1;-3.516151905E0;2.964001417E0
4.305312861E0;9.937015533E0;-9.897279739E-2;2.515043497E0
4.323622808E0;4.490614414E0;2.486630440E0;5.869517326E0
4.341933366E0;3.389351368E0;-7.522916794E-2;9.220252037E0
4.360245083E0;2.686051369E0;-6.056143761E0;9.926676750E0
4.378553933E0;-5.798816681E-3;-5.306378365E0;7.238265991E0
4.396864857E0;-3.117586613E0;-2.411183357E0;-1.974833250E0
4.415169067E0;-4.554370880E0;-1.352879524E0;-9.804599285E-1
4.433485484E0;-4.469897747E0;-1.730910301E0;4.146742821E0
4.451795981E0;-4.599104881E0;-2.892112732E0;4.784461498E0
4.470107210E0;-4.666245937E0;-3.217984200E0;4.207645893E0
4.488416914E0;-4.052534580E0;-1.538820267E0;3.882464170E0
4.506727228E0;-3.908430576E0;4.614048004E-1;4.169662476E0
4.525037480E0;-3.299915075E0;1.436461449E0;4.309077263E0
4.543343460E0;-2.994491577E0;1.285103798E0;5.019683838E0
4.561658169E0;-2.233007431E0;6.631460190E-1;5.606922626E0
4.579968482E0;-1.327831030E0;4.580869675E-1;5.900463581E0
4.598279040E0;-1.315875053E-1;9.446678162E-1;6.141981125E0
4.616589293E0;7.934665680E-1;1.487785339E0;6.238763809E0
4.634899851E0;1.361346245E0;1.977945328E0;6.086415291E0
4.653210226E0;1.865938663E0;2.277288437E0;5.648670197E0
4.671519318E0;2.683335543E0;2.195700169E0;4.941515923E0
4.689831708E0;3.764284134E0;1.868417740E0;4.058105469E0
4.708141655E0;4.171040535E0;1.410236359E0;2.659436226E0
4.726451725E0;3.012829781E0;2.506017685E-1;-6.440646648E0
4.744761978E0;2.849280596E0;-5.963993073E-2;-3.712054491E0
4.763071986E0;3.728086472E0;5.713825226E-1;1.684198618E0
4.781382604E0;3.006890774E0;4.432830811E-1;2.649140596E0
4.799693406E0;3.241434097E0;3.933153152E-1;2.727325201E0
4.818003476E0;4.537423134E0;1.333291054E0;3.242226362E0
4.836314033E0;6.003939152E0;1.889930725E0;4.375740528E0
4.854610248E0;7.305958271E0;9.744300842E-1;5.390740871E0
4.872935882E0;7.483999252E0;-2.680177689E-1;4.324005127E0
4.891245280E0;5.672063351E0;-2.670455933E0;-4.728588104E0
4.909555594E0;5.469321251E0;-3.937648773E0;-2.867775440E0
4.927866151E0;4.227291107E0;-5.638888359E0;-2.302637398E-1
4.946176526E0;1.913469315E0;-5.906838417E0;-8.134837747E-1
4.964486657E0;-1.754804373E0;-4.657640457E0;-3.020140648E0
4.982797093E0;-3.421715021E0;-5.946928978E0;-7.584435940E-1
5.001107589E0;-4.119924068E0;-7.998744011E0;3.306207657E0
5.019417720E0;-5.708086967E0;-9.213717461E0;5.836193085E0
5.037716864E0;-6.942863464E0;-9.864542961E0;6.507776737E0
5.056032915E0;-5.355238914E0;-7.779212475E0;2.909820557E0
5.074348905E0;-5.376286030E0;-5.133142471E0;3.459790468E0
5.092659402E0;-5.980893612E0;-2.688544273E0;5.959357738E0
5.110968922E0;-4.472722530E0;-2.909436226E-1;6.437075615E0
5.129282044E0;-1.159395695E0;2.141529083E0;4.476141930E0
5.147590527E0;1.725702286E0;3.194518566E0;4.876232624E0
5.165900962E0;3.056531906E0;3.287714005E0;7.113857746E0
5.184205416E0;5.705380440E-1;2.904008389E0;6.821755409E0
5.202525252E0;-3.321724415E0;2.303174496E0;5.997115135E0
5.220832087E0;-4.672423363E0;2.458925724E0;5.956718922E0
5.239142645E0;-5.402020454E0;3.293483496E0;5.552353859E0
5.257452958E0;-6.156036377E0;4.229799271E0;4.896622658E0
5.275763333E0;-6.647303581E0;4.927492142E0;4.978810787E0
5.294073891E0;-6.522593021E0;5.490921021E0;5.485778809E0
5.312371326E0;-5.920080662E0;5.585590839E0;5.483569622E0
5.330694518E0;-4.994915485E0;4.509217262E0;2.212160349E0
5.349004832E0;-1.598062992E0;6.292419434E-1;-5.466064453E0
5.367303976E0;5.854633331E0;-8.058063507E0;-1.871239424E0
5.385625765E0;1.147329044E1;-1.473830891E1;-1.398080826E0
5.403935956E0;1.371100712E1;-7.848103046E0;-3.558114529E0
5.422246820E0;1.252358437E1;2.516725063E0;-4.323257446E0
5.440555790E0;4.054956436E0;6.510800838E0;5.687733650E0
5.458866959E0;-2.812103748E0;2.397207737E0;1.050900936E1
5.477177822E0;-3.198996067E0;-7.258452892E0;1.004220200E1
5.495488074E0;-1.142710686E0;-1.046016502E1;2.813200951E0
5.513799548E0;-3.789443016E0;-7.573054790E0;-1.483652782E1
5.532109190E0;-7.760038376E0;-4.079564095E0;2.070839643E0
5.550419443E0;-1.095473862E1;-5.928691864E0;5.996559620E0
5.568729818E0;-1.092483425E1;-8.430265427E0;4.154275417E0
5.587040131E0;-1.038512039E1;-8.215141296E0;2.734550476E0
5.605350445E0;-8.944358826E0;-5.211442471E0;2.803623438E0
5.623647026E0;-7.160023212E0;-2.837426662E0;2.567650557E0
5.641972233E0;-5.820876122E0;-8.929395676E-1;2.614078999E0
5.660282363E0;-4.753510475E0;4.255647659E-1;3.422021389E0
5.678592188E0;-3.534366369E0;1.311838150E0;4.258281708E0
5.696897741E0;-2.359573841E0;1.528343201E0;5.193222046E0
5.715212877E0;-5.586757660E-1;1.077494621E0;6.358165264E0
5.733523069E0;2.080528736E0;1.916284561E-1;7.340816021E0
5.751833626E0;4.695710182E0;-2.931308746E-2;7.390864372E0
5.770145222E0;5.245909691E0;8.530149460E-1;5.976894379E0
5.788454559E0;4.375565529E0;1.773618698E0;4.214618206E0
5.806764873E0;3.065787792E0;2.444403648E0;2.598366737E0
5.825071952E0;1.905025721E0;2.320701599E0;7.211120129E-1
5.843381289E0;-1.979559541E0;9.282360077E-1;-8.079816818E0
5.861696058E0;2.394361019E0;4.336748123E-1;-5.451349258E0
5.880002222E0;4.245678902E0;6.029176712E-1;-2.619317532E0
5.898302953E0;3.283979654E0;7.708272934E-1;-1.812413931E0
5.916627182E0;1.239666700E0;8.003892899E-1;-5.108453274E0
5.934937557E0;1.303094149E0;1.062429905E0;-1.903670788E0
5.953243049E0;3.448891878E0;1.362976074E0;2.181261182E-1
5.971558429E0;3.499167204E0;5.408611298E-1;-2.161974669E0
5.989868743E0;4.017258167E0;6.462383270E-2;-4.229693413E0
6.008179545E0;5.448073387E0;-7.301921844E-1;-2.807457685E0
6.026489858E0;4.967682838E0;-2.881072044E0;-1.546190143E0
6.044800111E0;1.582396984E0;-4.484674454E0;-1.408364058E0
6.063110425E0;1.819033623E-1;-7.412405014E0;8.816374540E-1
6.081419578E0;-7.715201378E-1;-1.210572624E1;3.842566490E0
6.099730929E0;-5.155354977E0;-1.817065239E1;5.313553810E0
6.118044295E0;-1.056739330E1;-2.359092903E1;-8.095556498E-1
6.136351923E0;-1.375168419E1;-1.991751862E1;-3.363382339E0
6.154662298E0;-1.065554523E1;-8.504293442E0;-5.127117634E-1
6.172972611E0;-1.047048664E1;-3.511876106E0;3.049782753E0
6.191283413E0;-8.760225296E0;-4.748349190E-1;4.749264240E0
6.209593483E0;-7.200645447E0;1.740323305E0;4.332276821E0
6.227903736E0;-5.080516338E0;2.934561491E0;3.206369400E0
6.246214294E0;-3.093955994E0;3.117962360E0;3.035138130E0
6.264524668E0;-1.518918514E0;2.120388985E0;4.235668182E0
6.282836142E0;-6.984167099E-1;1.314979076E0;5.589809418E0
6.301145418E0;-2.164072514E0;1.389083862E0;6.114283085E0
6.319455793E0;-5.426441193E0;2.245463371E0;4.973738194E0
6.337766350E0;-6.816816330E0;2.954486370E0;3.278773785E0
6.356076969E0;-7.273607731E0;2.695367336E0;2.537331820E0
6.374387283E0;-7.753960609E0;2.182729959E0;2.563794374E0
6.392697597E0;-7.957560539E0;2.658672810E0;1.777164221E0
6.411008216E0;-6.739485741E0;1.879052162E0;-9.025616646E-1
6.429318407E0;-9.250855446E-1;-2.178115845E0;-5.059001923E0
6.447628721E0;9.715190887E0;-8.355194092E0;-7.789430141E0
6.465934274E0;1.067033100E1;-1.072372246E1;-3.082418919E0
6.484249410E0;1.055411530E1;-3.441618919E0;-6.159090042E0
6.502559968E0;4.350155830E0;3.986834764E0;-7.471762657E0
6.520855144E0;-8.739457130E-1;2.424728394E0;4.016333580E0
6.539169548E0;-7.981796265E-1;-1.028581429E1;1.070558929E1
6.557479556E0;-1.345181465E-1;-1.641155815E1;8.596055984E0
6.575798903E0;-2.578736305E0;-9.785534859E0;4.009343147E0
6.594105982E0;-5.108580589E0;-3.423770905E0;2.413970232E0
6.612422338E0;-7.573578358E0;-7.284116745E-1;2.624479771E0
6.630732652E0;-9.365756989E0;-1.397678375E0;3.217381001E0
6.649041867E0;-1.006305504E1;-3.195899010E0;3.538767099E0
6.667353279E0;-1.115642929E1;-5.374585152E0;4.130655766E0
6.685664020E0;-9.132490158E0;-5.841474056E0;3.694931269E0
6.703974334E0;-7.317324638E0;-4.127574444E0;2.387541056E0
6.722280558E0;-6.415381432E0;-2.080518246E0;1.368114352E0
6.740595023E0;-5.916469097E0;-4.826917648E-1;1.001993537E0
6.758905397E0;-5.570928574E0;1.156606674E-1;1.163302422E0
6.777216077E0;-5.409917355E0;5.642795563E-2;1.560357928E0
6.795526391E0;-5.010891438E0;-1.811385155E-1;2.101897717E0
6.813836705E0;-3.448735237E0;-6.166987419E-1;2.755080223E0
6.832147080E0;-7.656354904E-1;-1.116581440E0;3.193755627E0
6.850459042E0;3.304852009E0;-1.789673328E0;2.076624393E0
6.868767951E0;6.392430305E0;-5.091938972E-1;-1.520484567E0
6.887078265E0;5.924090385E0;8.419156075E-1;-4.582035065E0
6.905388823E0;2.762664318E0;1.585451126E0;-3.375702381E0
6.923700052E0;7.105083466E-1;1.596477509E0;-1.130026102E0
6.942009389E0;-2.868232727E-1;1.627356529E0;-5.941641331E-2
6.960319947E0;-1.498365402E-1;1.489280224E0;3.443546295E-1
6.978630078E0;8.866620064E-1;1.302266598E0;6.929640770E-1
6.996940636E0;1.864143372E0;1.124968529E0;9.869711399E-1
7.015251438E0;2.104097366E0;3.157444000E-1;9.346073866E-1
7.033561507E0;2.554662704E0;-1.115498543E0;8.886430264E-1
7.051872981E0;3.205180168E0;-1.706830025E0;1.048999429E0
7.070183172E0;1.569725037E0;-1.871833801E0;1.068149567E0
7.088492693E0;-9.848971367E-1;-2.440012932E0;-3.408389091E0
7.106798368E0;1.698606491E0;-4.095270157E0;-4.525993824E0
7.125113503E0;3.952999115E0;-4.752752304E0;-1.246470928E0
7.143424549E0;2.568613529E0;-3.730100632E0;-2.052890778E0
7.161733215E0;-1.507596970E-1;-7.566070557E-2;-2.571241856E0
7.180044933E0;-1.910886288E0;-7.578301430E-1;-8.982117772E-1
7.198355307E0;-1.792043209E0;-6.538953781E0;2.011311054E0
7.216665377E0;-1.839017868E0;-1.079008865E1;3.753120422E0
7.234970136E0;-4.387053490E0;-1.392502594E1;4.612040520E0
7.253282892E0;-7.035535336E0;-1.352111053E1;3.024607658E0
7.271596806E0;-7.059618473E0;-8.796547890E0;-1.511337638E0
7.289907181E0;-8.121552467E0;-4.852281570E0;-1.759117961E0
7.308206509E0;-8.700669289E0;-1.260213375E0;1.824859381E0
7.326527992E0;-7.918649197E0;8.209462166E-1;4.198919296E0
7.344838489E0;-5.085447788E0;2.276386023E0;2.958485126E0
7.363147398E0;-2.106574059E0;3.220146894E0;8.949383497E-1
7.381459421E0;-6.965675354E-1;2.952646255E0;1.240357280E0
7.399769674E0;-1.343352795E0;1.537992001E0;2.650622845E0
7.418080049E0;-4.163799286E0;2.989859581E-1;3.704816818E0
7.436390606E0;-5.877958298E0;4.152517319E-1;4.821143150E0
7.454700858E0;-6.140364170E0;2.211365700E-1;6.325703621E0
7.473011233E0;-6.862616062E0;-1.099066734E-1;6.693546772E0
7.491322951E0;-8.049833298E0;-4.052877426E-2;5.338453293E0
7.509632288E0;-9.071408272E0;2.540616989E-1;2.840553761E0
7.527942418E0;-9.841810226E0;1.535320282E-2;-5.390930176E-1
7.546256028E0;-9.843832970E0;-9.443421364E-1;-4.801986217E0
7.564563229E0;-3.716095924E0;-1.823103428E0;-1.034005928E1
7.582873604E0;1.119407749E1;-2.559686661E0;-7.724208832E0
7.601184101E0;1.965353394E1;-8.613000870E0;-6.675474644E-1
7.619494231E0;1.671500969E1;-6.983618736E0;-2.207052946E0
7.637804850E0;6.989066124E0;2.165911674E0;-4.428035736E0
7.656115286E0;-1.293259144E0;4.337757111E0;2.248872042E0
7.674425905E0;-3.605663776E0;-1.732199669E0;8.709510803E0
7.692737379E0;-1.736749172E0;-1.147989082E1;8.618919373E0
7.711045616E0;-8.556780815E-1;-1.568935394E1;3.281116486E0
7.729359776E0;-6.842573643E0;-8.242662430E0;-6.989147663E0
7.747670334E0;-8.187604904E0;-7.826790810E-1;-3.609379768E0
7.765977718E0;-9.996133804E0;-1.420011997E0;4.734560966E0
7.784288215E0;-1.068008041E1;-3.750964165E0;5.453337193E0
7.802597124E0;-1.097967625E1;-5.145350933E0;4.778005123E0
7.820908842E0;-9.971555710E0;-5.066125870E0;4.543391228E0
7.839219400E0;-7.675011635E0;-3.647900581E0;3.376091003E0
7.857530019E0;-6.533511639E0;-1.870308399E0;2.568794727E0
7.875835450E0;-5.737977028E0;-6.788535118E-1;3.093397141E0
7.894150646E0;-4.601137638E0;2.489900589E-1;3.394334316E0
7.912460960E0;-3.639271498E0;9.058151245E-1;3.683412313E0
7.930771640E0;-3.047634125E0;8.767585754E-1;3.960181236E0
7.949081832E0;-2.988687515E0;4.153442383E-2;3.946155310E0
7.967392328E0;-1.936078072E0;-1.291907310E0;3.844838858E0
7.985702764E0;4.559969902E-1;-2.245979309E0;3.543560982E0
8.004007157E0;3.672525406E0;-1.951687813E0;2.527415752E-2
8.022323636E0;3.200359344E0;5.620651245E-1;-5.485942364E0
8.040634072E0;2.873517513E0;2.114813805E0;-5.672587395E0
8.058943958E0;2.817304611E0;2.754432201E0;-1.402088165E0
8.077254760E0;1.223946571E0;1.977689743E0;9.931782484E-1
8.095565074E0;-9.626102448E-2;1.190234184E0;1.673037291E0
8.113875449E0;-6.605272293E-1;1.210957527E0;1.356198072E0
8.132187106E0;-9.139237404E-1;2.151443958E0;5.898454189E-1
8.150496259E0;-1.348558426E0;2.606338024E0;-4.342287779E-1
8.168807061E0;-2.634357452E0;2.030487537E0;-3.514054775E0
8.187117131E0;-2.680735111E0;1.564582825E0;-6.062874317E0
8.205427384E0;1.551063061E-1;2.653559685E0;-1.562216759E0
8.223737880E0;2.781259537E0;2.041940689E0;1.508402467E0
8.242048255E0;5.489458084E0;1.074666977E-1;3.735166311E0
8.260359790E0;6.923679829E0;-6.139488220E-1;3.444902897E0
8.278669249E0;7.219117165E0;1.215547562E0;-2.677770853E-1
8.296979380E0;6.490713120E0;2.640476227E0;-1.370039177E1
8.315289937E0;4.041556835E0;2.231758118E0;-9.184834480E0
8.333601777E0;1.451421022E0;3.567111015E0;-3.887798548E0
8.351910931E0;1.964628220E0;3.528419495E0;1.105342507E-1
8.370222160E0;6.222177982E0;-1.123170853E0;2.895839930E0
8.388531803E0;5.534796238E0;-9.412238121E0;7.465949059E0
8.406842116E0;-1.642155647E-1;-1.770199966E1;7.100783348E0
8.425152430E0;-3.878516674E0;-2.782377434E1;6.500284195E0
8.443456884E0;-5.114161968E0;-2.865288162E1;-2.438955545E0
8.461773241E0;-5.190611839E0;-1.628023911E1;-5.957290649E0
8.480079282E0;-8.599827766E0;-8.856096268E0;2.282540560E0
8.498393929E0;-8.949658394E0;-3.947392464E0;4.257286072E0
8.516699848E0;-8.271457672E0;-1.102412701E0;4.780763626E0
8.535012298E0;-4.992808342E0;9.614009857E-1;2.443786621E0
8.553321697E0;-1.116756916E0;1.044934750E0;4.174469709E-1
8.571634635E0;1.677664757E0;-5.574226379E-1;8.231083751E-1
8.589948733E0;2.419033051E-1;-2.740601063E0;1.008943319E0
8.608256422E0;-5.933530331E0;-1.235586643E0;2.951160431E0
8.626567041E0;-8.848490715E0;2.132215023E0;5.061014175E0
8.644871312E0;-1.057236862E1;3.657539845E0;6.008571148E0
8.663187668E0;-1.170056915E1;4.463469028E0;5.647565842E0
8.681498226E0;-1.174260998E1;5.265370846E0;4.661973953E0
8.699808784E0;-1.052029419E1;6.005569458E0;3.156081200E0
8.718117877E0;-8.951929092E0;6.684333801E0;1.331544399E0
8.736429412E0;-6.993055820E0;6.995707989E0;-1.230002642E0
8.754740030E0;4.566788673E-1;3.895406246E0;-2.308965111E1
8.773051564E0;1.088174820E1;-3.346127033E0;-5.524985790E0
8.791360718E0;1.956330490E1;-6.941572666E0;6.385972500E0
8.809671276E0;1.378426743E1;-1.239723492E1;4.123057842E0
8.827981529E0;-1.834414005E0;-9.383480072E0;5.205442905E-1
8.846291781E0;-7.600042343E0;-2.565299034E0;6.692070961E-1
8.864602156E0;-5.826167107E0;-5.760318279E0;5.265984058E0
8.882912409E0;5.751848221E-1;-1.747967339E1;-6.536380768E0
8.901226202E0;2.634979248E0;-2.187905502E1;5.616164207E0
8.919533830E0;-8.219071388E0;-9.845063210E0;3.885559082E0
8.937844082E0;-8.967514038E0;1.197681427E0;2.341067076E0
8.956154457E0;-8.471068382E0;3.910200834E0;4.560030460E0
8.974464710E0;-8.648831367E0;3.960370302E0;5.247466087E0
8.992775024E0;-9.417657852E0;7.851529121E-1;5.248051167E0
9.011084788E0;-9.209637642E0;-3.488735676E0;5.238942623E0
9.029396139E0;-7.955335617E0;-6.654104710E0;5.289338112E0
9.047706514E0;-5.347416878E0;-7.745052338E0;3.689998627E0
9.066016889E0;-2.898739815E0;-5.299816132E0;2.640352488E0
9.084313286E0;-2.728653669E0;-2.213533401E0;3.036739349E0
9.102637699E0;-2.810820103E0;-1.781797409E-1;1.968075037E0
9.120948806E0;-3.890170336E0;1.615894318E0;-9.321330070E0
9.139258327E0;-1.034019470E0;1.006995678E0;-3.434998035E0
9.157569129E0;2.219111443E0;-5.739498138E-2;2.437888622E0
9.175879138E0;5.447965622E0;-4.821777344E-3;4.199164391E0
9.194189756E0;6.992048264E0;1.240167618E0;3.382397652E0
9.212499093E0;5.506803989E0;2.493353844E0;1.954459667E0
9.230810628E0;3.472495556E0;3.178530693E0;1.659289837E0
9.249121125E0;1.890330315E0;3.853810787E0;2.446008205E0
9.267431500E0;4.541289806E-1;2.911125183E0;3.050812960E0
9.285740044E0;-2.700595856E-1;1.326078415E0;2.888979912E0
9.304040713E0;-2.433755398E-1;-7.654190063E-2;2.046420097E0
9.322353163E0;-7.655565739E-1;-1.036758423E0;-4.454420209E-1
9.340673182E0;-1.956502080E0;-7.704734802E-1;-5.613414288E0
9.358983557E0;2.765440941E-1;1.022316933E0;-3.904395342E0
9.377293748E0;3.405742884E0;1.712650776E0;5.437034369E-2
9.395604489E0;5.245650768E0;7.354640961E-2;1.987875700E0
9.413915902E0;7.080682755E0;-2.808650970E0;2.339731932E0
9.432225300E0;8.689988136E0;-3.188457489E0;2.214429379E0
9.450535674E0;7.990956306E0;-1.500631332E0;3.103670835E0
9.468846171E0;6.237973690E0;-7.797155380E-1;1.823273182E0
9.487156485E0;4.827685356E0;-2.633714676E-1;4.949775934E-1
9.505466799E0;1.481707811E0;-6.726417542E-1;4.480269551E-1
9.523777113E0;-1.493960857E0;-3.761313438E0;2.427377701E0
9.542090784E0;-2.976861715E0;-8.510387421E0;3.579442024E0
9.560398228E0;-6.758897781E0;-1.412405872E1;1.083440065E0
9.578708237E0;-9.194366455E0;-1.476554775E1;1.589376569E0
9.597018795E0;-8.126826286E0;-9.389492035E0;-2.405297756E-2
9.615329414E0;-7.225928783E0;-5.041699886E0;-1.520379782E-1
9.633639727E0;-6.612973690E0;-2.036301613E0;3.362107277E-1
9.651950285E0;-6.149556637E0;4.845013618E-1;1.058255553E0
9.670261514E0;-5.025783062E0;2.141144753E0;3.255339861E0
9.688570852E0;-2.853097439E0;3.076465130E0;3.867721081E0
9.706881471E0;-1.349470615E0;3.073655128E0;2.849396229E0
9.725187146E0;-8.504481316E-1;2.234385014E0;1.997935534E0
9.743502281E0;-2.458001137E0;6.919741631E-1;1.913622856E0
9.761826755E0;-5.210422039E0;9.072828293E-2;3.061365604E0
9.780112166E0;-5.683856010E0;1.079174519E0;4.609360218E0
9.798421809E0;-6.052021980E0;1.955811024E0;5.406969070E0
9.816732611E0;-6.819960594E0;2.650791645E0;5.712781906E0
9.835043291E0;-7.742640495E0;3.231480122E0;5.696691990E0
9.853360318E0;-8.729967117E0;3.876696587E0;4.961663723E0
9.871675271E0;-8.266637802E0;4.044822693E0;3.577005863E0
9.889985584E0;-6.347539425E0;2.187821388E0;8.090947866E-1
9.908295837E0;-2.622328997E0;-3.899813652E0;-1.469112015E1
9.926601512E0;9.268806458E0;-1.005672741E1;-4.144046783E0
9.944917075E0;1.267736435E1;-9.674271584E0;4.916796684E-1
9.963227511E0;1.195149422E1;-3.861024857E0;7.231320143E-1
9.981536420E0;9.261095047E0;3.286071777E0;3.594013691E0
9.999847894E0;4.825664520E0;7.564466000E0;6.465694427E0
1.001815845E1;-1.255768299E0;6.614665985E0;5.419867039E0
1.003646925E1;-4.294427872E0;-4.049591064E0;-2.220011950E0
1.005477938E1;-1.587684631E0;-1.242262268E1;2.136411190E0
1.007308970E1;-7.346868515E-1;-1.337844658E1;2.870284557E0
1.009139995E1;-3.011825323E0;-6.277030945E0;-1.251834273E0
1.010971051E1;-6.118778229E0;-2.873644829E0;4.792014956E-1
1.012802082E1;-8.016187668E0;-2.466809273E0;2.356100798E0
1.014633150E1;-9.151926041E0;-3.543263435E0;5.058306694E0
1.016464200E1;-7.323057175E0;-3.786260605E0;6.589429855E0
1.018295372E1;-5.642183304E0;-2.973070145E0;6.589273930E0
1.020126250E1;-4.962291718E0;-1.712136269E0;6.785160065E0
1.021957294E1;-4.286729336E0;-2.445106506E-1;6.166484833E0
1.023787038E1;-3.421886444E0;8.212695122E-1;5.394439697E0
1.025619375E1;-2.641559124E0;1.583544254E0;4.721158981E0
1.027450461E1;-2.397730350E0;1.975401402E0;4.149780273E0
1.029281487E1;-2.092849970E0;2.179786682E0;3.682984829E0
1.031112353E1;-1.501208067E0;1.447359085E0;3.617197514E0
1.032943562E1;-1.385662556E-1;-3.801231384E-1;-3.799400806E0
1.034774605E1;3.005159140E0;1.925086975E-2;-1.373698997E1
1.036605173E1;2.881749153E0;1.714230537E0;-4.708543301E0
1.038436692E1;1.597068071E0;2.575179100E0;1.007540226E0
1.040267705E1;1.417928934E0;2.832308292E0;2.988654613E0
1.042098670E1;1.842991590E0;2.935117245E0;3.127291203E0
1.043929817E1;1.796485662E0;2.872692585E0;2.695825815E0
1.045760848E1;2.243070126E0;2.437779427E0;2.264849186E0
1.047591910E1;3.576152325E0;2.240120888E0;2.172001600E0
1.049422356E1;4.480240822E0;1.539004326E0;1.161442518E0
1.051253991E1;5.585762024E0;5.696496964E-1;-6.997897029E-1
1.053083570E1;6.891395092E0;1.019565582E0;-6.823261380E-1
1.054916048E1;6.925879002E0;2.682766914E0;2.374761105E-1
1.056747134E1;7.952370167E0;1.597902298E0;6.789433956E-1
1.058578166E1;9.570463181E0;-2.833271027E-2;2.204748392E0
1.060409191E1;5.234594345E0;-1.279211044E-1;2.536169052E0
1.062240124E1;-2.187605143E0;-6.613082886E-1;-3.064757586E0
1.064069642E1;-3.844113827E0;-3.349723816E0;-3.331064939E0
1.065902291E1;-2.114206791E0;-7.332282066E0;3.556974888E0
1.067733347E1;-1.548997164E0;-1.190260696E1;6.370029449E0
1.069564403E1;-4.721817017E0;-1.886225319E1;7.129717827E0
1.071395446E1;-8.682816505E0;-2.344592094E1;2.283202648E0
1.073226490E1;-7.789072990E0;-1.422321701E1;-2.786811590E0
1.075057527E1;-7.850592613E0;-5.705996513E0;4.833985567E-1
1.076888577E1;-6.592216969E0;-6.386880875E-1;3.117976665E0
1.078719633E1;-4.567224503E0;2.675150394E0;3.465127230E0
1.080550658E1;-1.580089569E0;4.880702496E0;2.231355190E0
1.082381812E1;1.390637875E0;6.237040997E0;1.314845324E0
1.084212745E1;2.590597630E0;5.935857773E0;1.912312984E0
1.086043758E1;6.705703735E-1;4.017171860E0;1.656577349E0
1.087874820E1;-4.379938602E0;1.659996033E0;1.242728710E0
1.089705864E1;-7.282155991E0;1.976293087E0;1.235678792E0
1.091536926E1;-6.737326622E0;4.411415100E0;2.271343231E0
1.093367957E1;-6.053390980E0;5.943319798E0;3.952150345E0
1.095199104E1;-6.315934181E0;6.323878765E0;4.959724426E0
1.097030044E1;-7.150534630E0;6.244161606E0;5.166392326E0
1.098861100E1;-7.869010925E0;6.257133007E0;4.503273964E0
1.100691661E1;-7.195930481E0;6.326367855E0;3.019932747E0
1.102523419E1;-5.602061749E0;5.087722301E0;-2.472700596E0
1.104354170E1;1.219811678E0;-2.375834465E0;-2.217807770E1
1.106185238E1;1.758569527E1;-9.207799911E0;2.447414875E0
1.108016397E1;2.110728455E1;-1.162609386E1;4.669392586E0
1.109847288E1;1.292995930E1;-4.280879021E0;4.357793331E-1
1.111678368E1;2.036301136E0;2.424500942E0;8.914625168E0
1.113508814E1;-3.171801567E0;6.148347855E0;7.956413269E0
1.115339632E1;-1.337864780E1;3.398130417E0;-1.457855415E1
1.117171481E1;-4.958679676E0;-6.846407890E0;7.140727520E0
1.119002537E1;-3.542226553E0;-2.245800400E1;1.069014168E1
1.120833885E1;-3.399528503E0;-1.702305794E1;6.250783920E0
1.122664630E1;-3.631474495E0;-9.205239296E0;5.851862431E0
1.124495661E1;-6.280588627E0;-5.738830566E0;6.510756969E0
1.126326259E1;-6.963240623E0;-3.405125618E0;6.380917072E0
1.128157742E1;-6.336856842E0;-4.749956131E-1;6.246716976E0
1.129987626E1;-5.592966080E0;-2.455816269E-1;3.874010563E0
1.131820147E1;-4.597633362E0;-2.608476639E0;2.352682590E0
1.133650879E1;-2.919587135E0;-3.580813408E0;2.681814432E0
1.135481941E1;-1.055670500E0;-3.021545410E0;4.274262905E0
1.137312972E1;3.837864399E-1;-2.044174194E0;4.814435959E0
1.139143912E1;9.338591099E-1;-2.973423004E-1;4.113937378E0
1.140975066E1;1.005339384E0;1.784738064E0;3.160138607E0
1.142806097E1;9.068467617E-1;3.803515911E0;1.783455610E0
1.144637122E1;-1.815499306E0;4.771881104E0;-6.059164047E0
1.146468178E1;-6.089293957E-2;4.101492405E0;-6.977806091E0
1.148299197E1;3.585614204E0;4.324910164E0;-3.693529367E0
1.150130265E1;5.664139271E0;3.926728249E0;-2.784423530E-2
1.151961303E1;5.661450386E0;3.484299660E0;2.046522379E0
1.153792645E1;4.023783684E0;3.420087337E0;3.002577543E0
1.155623390E1;3.603494167E0;2.691405296E0;3.285376787E0
1.157454440E1;3.677591324E0;2.097527504E0;3.323988914E0
1.159285599E1;3.556905508E0;2.713643074E0;1.738310575E0
1.161116533E1;2.813205719E0;3.482421875E0;-3.635721207E-1
1.162947552E1;-2.906972766E-1;1.109032631E0;-1.096200371E1
1.164778614E1;4.659027100E0;-3.891077042E-1;-1.905651093E-1
1.166609657E1;6.927866936E0;-1.821664810E0;6.047738075E0
1.168440677E1;9.274076462E0;-1.139049530E0;7.280341148E0
1.170271738E1;1.284038448E1;-1.974573135E0;3.271526337E0
1.172102800E1;1.339709663E1;-9.841136932E-1;1.635277748E0
1.173933801E1;7.596788406E0;1.906293869E0;7.732936144E-1
1.175764881E1;1.607618570E0;2.163801670E0;-3.485385895E0
1.177594466E1;-8.805004358E-1;-1.653669357E0;-4.665144444E0
1.179426944E1;-1.020996690E0;-8.014445305E0;9.501984715E-1
1.181258024E1;-1.283010244E0;-1.406551456E1;5.826140404E0
1.183089031E1;-4.189002514E0;-2.032558823E1;5.958890915E0
1.184919947E1;-1.064533520E1;-2.483815956E1;3.595871449E0
1.186751289E1;-1.178857136E1;-1.489654160E1;1.285965443E-1
1.188582162E1;-9.469986916E0;-5.215688705E0;1.389755487E0
1.190412595E1;-7.286680222E0;4.087791443E-1;3.136218309E0
1.192242601E1;-5.280964851E0;3.780500412E0;5.924646378E0
1.194075439E1;-9.046440125E-1;6.205474854E0;4.990422249E0
1.195906324E1;4.600378990E0;7.041641235E0;1.410775661E0
1.197737374E1;4.680990696E0;5.350278378E0;1.945007324E0
1.199568411E1;-2.349546194E0;3.644756317E0;4.604067802E0
1.201399473E1;-5.196529865E0;3.710535526E0;5.592647552E0
1.203230407E1;-6.215065002E0;4.956617355E0;5.050754547E0
1.205061554E1;-6.281832695E0;6.535067558E0;4.140768528E0
1.206892580E1;-6.042145252E0;7.702963829E0;3.672626495E0
1.208721780E1;-6.110045910E0;7.688868523E0;2.235980988E0
1.210553531E1;-6.362390995E0;6.780276299E0;2.381622791E0
1.212384587E1;-7.707528114E0;5.757667542E0;2.738538742E0
1.214217071E1;-7.562964916E0;4.786627769E0;3.043356180E0
1.216047810E1;-6.135843277E0;3.156217575E0;1.488070965E0
1.217878823E1;9.224581718E-1;-1.376639366E0;-1.077905941E1
1.219709903E1;2.064334869E1;-8.831375122E0;-8.867835999E0
1.221540934E1;2.270472145E1;-1.289510059E1;3.551137209E0
1.223372106E1;1.346801567E1;-3.623286247E0;1.415612102E0
1.225203021E1;2.040732384E0;3.470587254E0;6.838726997E-2
1.227034077E1;-3.399896860E0;4.759453773E0;5.489879608E0
1.228865109E1;-3.431038857E0;5.914738655E0;8.062463760E0
1.230695853E1;-5.122168064E0;4.741016388E0;5.223633766E0
1.232527190E1;1.606977940E0;-1.273672295E1;-1.715871429E1
1.234358252E1;3.711749554E0;-2.114794540E1;3.779350042E0
1.236188435E1;2.425517082E0;-1.246297359E1;-7.385623455E0
1.238020418E1;-4.432971001E0;-6.985271454E0;2.049349785E0
1.239851370E1;-7.325804710E0;-4.032083511E0;6.642693043E0
1.241681932E1;-6.234382629E0;-1.776868820E0;5.319261551E0
1.243513457E1;-6.333941936E0;-9.754476547E-1;6.836989403E0
1.245343213E1;-6.533697128E0;-1.195029259E0;9.287809372E0
1.247175544E1;-5.958919525E0;-1.119535446E0;8.884256363E0
1.249006838E1;-5.411973476E0;-1.553783417E-1;8.450881004E0
1.250837626E1;-4.345515728E0;1.529696465E0;5.756739616E0
1.252668370E1;-3.442984343E0;2.566961288E0;4.116702080E0
1.254499133E1;-2.765891790E0;2.493723869E0;3.513684750E0
1.256329676E1;-2.269688129E0;1.591702461E0;3.896972895E0
1.258161775E1;-1.420234323E0;6.866054535E-1;4.364402294E0
1.259992563E1;-1.431012154E-1;6.202220917E-1;4.807971478E0
1.261822672E1;1.621261358E0;5.550594330E-1;5.914201736E0
1.263654955E1;2.893098593E0;-6.849117279E-1;-1.400849152E1
1.265485980E1;5.082940102E0;1.607064247E0;-1.510846996E1
1.267316890E1;4.351146698E0;3.776720047E0;-2.532481194E0
1.269148037E1;3.637479782E0;4.001790524E0;5.686440945E0
1.270979099E1;4.475074768E0;2.955545902E0;6.140296459E0
1.272810441E1;4.811619282E0;1.967488766E0;3.501153946E0
1.274641186E1;6.568308353E0;1.575942039E0;-1.462774277E-1
1.276470801E1;1.105176544E1;2.320436954E0;-7.278862953E0
1.278303267E1;1.046237373E1;2.489902020E0;-6.550829887E0
1.280134182E1;7.558628559E0;1.851633072E0;3.490315080E-1
1.281965360E1;7.322890759E0;1.418963432E0;3.567438126E0
1.283794982E1;9.337420464E0;1.401185036E0;2.970273733E0
1.285627441E1;1.277031803E1;-1.357066154E0;1.623943686E0
1.287458497E1;6.512071609E0;-2.046169281E0;1.645845771E0
1.289289528E1;-1.301350117E0;-2.683845520E0;-5.259483814E0
1.291120560E1;-1.303242683E0;-3.323028564E0;-1.303675175E0
1.292951524E1;-1.543551207E0;-5.843804359E0;8.687044978E-1
1.294782653E1;-1.516907930E0;-9.959822655E0;3.487715721E0
1.296613703E1;-2.930056572E0;-1.477316856E1;5.039681911E0
1.298444740E1;-5.673832893E0;-2.000680161E1;4.142645359E0
1.300274716E1;-6.101192474E0;-1.540172672E1;-2.607659101E-1
1.302106730E1;-6.918934822E0;-7.519890785E0;1.116243601E0
1.303937883E1;-6.934340000E0;-1.867444992E0;4.435838223E0
1.305768908E1;-5.615242958E0;1.986554146E0;4.880156994E0
1.307599976E1;-2.121063709E0;4.761520386E0;1.999201536E0
1.309431002E1;1.422020435E0;6.489234924E0;-1.795163274E0
1.311262057E1;3.536067963E0;6.528683186E0;-4.918776751E-1
1.313092942E1;2.429180622E0;4.916858673E0;8.109596968E-1
1.314923070E1;-3.407311201E0;3.720813036E0;1.641931295E0
1.316754236E1;-6.847619534E0;4.948050976E0;2.921519041E0
1.318585158E1;-7.476982117E0;5.799088001E0;4.429466248E0
1.320416140E1;-7.644461632E0;6.135397911E0;5.472338200E0
1.322247190E1;-7.591827869E0;6.311905861E0;5.395828247E0
1.324078264E1;-6.752100945E0;6.390748978E0;4.484277725E0
1.325910382E1;-5.079829216E0;5.946058750E0;3.141848564E0
1.327741437E1;-7.610054970E0;1.925504208E0;-1.225490284E1
1.329571065E1;3.560865402E0;-2.736156464E0;-1.034025669E1
1.331402493E1;1.582319641E1;-1.062324047E1;5.356960773E0
1.333233433E1;1.479414558E1;-1.296215439E1;4.595076561E0
1.335064501E1;1.120868778E1;-5.019260406E0;-4.360111237E0
1.336895691E1;9.340066910E-1;2.322602749E0;2.416095495E0
1.338726600E1;-4.102614403E0;4.642757416E0;6.829546452E0
1.340557693E1;-6.002641678E0;6.487646580E0;4.912814140E0
1.342388706E1;-1.395270252E1;9.392471313E-1;-1.923317909E1
1.344219658E1;-6.213109970E0;-9.878581047E0;-2.826629639E0
1.346050701E1;4.252209663E0;-2.467836952E1;1.220211315E1
1.347881818E1;4.264440536E0;-1.449548817E1;8.757069588E0
1.349712807E1;3.701281548E-1;-9.927453995E-1;7.352902412E0
1.351543960E1;-9.891400337E-1;4.334001541E0;5.982988358E0
1.353375016E1;-1.561723709E0;3.639607906E0;6.195238590E0
1.355205992E1;-1.088523626E0;-2.152003288E0;7.807215691E0
1.357036993E1;6.124153137E-1;-8.150188446E0;8.782975197E0
1.358869911E1;2.603090763E0;-7.244929314E0;7.855941772E0
1.360700222E1;1.501179934E0;-1.573895454E0;5.929551125E0
1.362531284E1;-2.343559265E-2;1.403938770E0;4.596832752E0
1.364362450E1;-1.190914154E0;2.372970581E0;3.840020180E0
1.366193365E1;-2.474248171E0;2.382697105E0;3.792996883E0
1.368024195E1;-6.692719936E0;3.384389877E-1;-1.035542774E1
1.369855422E1;-3.786289454E0;5.740261078E-2;-1.036377239E1
1.371686508E1;6.365838051E-1;1.366580009E0;-2.194983244E0
1.373517539E1;2.835565090E0;2.468109131E0;1.583538055E0
1.375348607E1;3.965695143E0;3.319661140E0;3.149998665E0
1.377179748E1;4.378058434E0;4.141255856E0;4.004354000E0
1.379010584E1;3.822794437E0;4.688151360E0;3.171769857E0
1.380841707E1;3.731927395E0;4.448263168E0;1.571761131E0
1.382672287E1;3.403257370E0;2.361152649E0;1.088357210E0
1.384503801E1;3.603194475E0;-7.072076797E-1;1.719497442E0
1.386334777E1;2.976801872E0;-1.626768112E0;-7.807189822E-1
1.388165760E1;1.540868759E0;-1.553780556E0;-6.807147026E0
1.389996919E1;5.192817688E0;-3.275485039E0;-3.370462418E0
1.391827975E1;5.270066738E0;-3.312320709E0;1.575764418E-1
1.393659025E1;5.625000477E0;-2.044749260E0;5.395003557E-1
1.395489470E1;7.196116447E0;-1.819583893E0;7.311495543E-1
1.397321094E1;8.001135826E0;-1.723350525E0;7.914286852E-1
1.399152174E1;9.506552696E0;-2.254632950E0;-6.895105839E-1
1.400983205E1;1.269931126E1;-1.284045219E0;-1.087462664E0
1.402814236E1;1.298938084E1;1.400015831E0;1.782591939E-1
1.404645286E1;8.227476120E0;2.347999573E0;1.849336624E0
1.406476342E1;5.688872814E0;6.733083725E-1;1.892400146E0
1.408307257E1;4.734971046E0;-3.084074020E0;1.226177335E0
1.410138435E1;1.998166323E0;-7.042734146E0;2.208838701E0
1.411969466E1;-9.720687866E-1;-1.119614220E1;4.132691860E0
1.413800211E1;-4.555096626E0;-1.424364376E1;5.937121391E0
1.415631554E1;-6.426022530E0;-1.116329670E1;4.571053028E0
1.417462603E1;-6.311136723E0;-4.918601036E0;6.079951525E-1
1.419293665E1;-5.654496193E0;-3.817586899E-1;2.357263565E0
1.421124813E1;-2.629544973E0;2.452356339E0;4.134228706E0
1.422955728E1;2.145202160E0;3.139956474E0;2.574779272E0
1.424786778E1;4.216396332E0;1.888170242E0;2.611381531E0
1.426617821E1;1.544697285E0;2.793722153E-1;3.828518629E0
1.428448865E1;-2.127303600E0;4.633708000E-1;4.394068718E0
1.430279927E1;-2.963836670E0;2.354371548E0;5.101161957E0
1.432110842E1;-3.980590820E0;3.378420115E0;5.774565220E0
1.433941983E1;-4.919598103E0;2.858866692E0;5.809633732E0
1.435773051E1;-5.707673073E0;2.391460419E0;4.971428871E0
1.437604052E1;-6.455238819E0;2.318566322E0;4.091160297E0
1.439435157E1;-6.779277325E0;2.386204243E0;3.324587107E0
1.441266280E1;-6.841267586E0;2.443262100E0;2.400278091E0
1.443097128E1;-6.014758587E0;2.028101921E0;1.749827862E0
1.444928397E1;-3.987797737E0;1.250353813E0;1.424405575E0
1.446759600E1;-6.540994644E-1;-6.870698929E-2;-4.900288582E-2
1.448590332E1;3.545237064E0;-1.305029869E0;-2.256303072E0
1.450421388E1;5.666126251E0;-1.407576561E0;-1.498597145E0
1.452252309E1;3.727541924E0;2.719063759E-1;1.436551929E0
1.454083505E1;3.476981640E0;3.165919781E0;2.463590384E0
1.455914226E1;8.765579224E0;3.458781719E0;5.463883400E0
1.457745556E1;1.801109123E1;-5.318621635E0;8.761661053E-1
1.459576142E1;7.948344707E0;-1.293171501E1;-8.473237038E0
1.461407649E1;-2.531407118E0;-4.511331081E0;-6.925553322E0
1.463238711E1;-5.888450623E0;1.288930893E0;1.856427193E0
1.465069742E1;-7.321459770E0;2.646425724E0;4.095417023E0
1.466900792E1;-7.299769402E0;2.609282970E0;3.419442654E0
1.468731830E1;-6.840640545E0;1.071752548E0;2.337335110E0
1.470562885E1;-6.319362640E0;-1.360231400E0;1.673143625E0
1.472393325E1;-6.200856209E0;-4.219965935E0;1.569604278E0
1.474224973E1;-4.834781170E0;-6.000751495E0;1.480188966E0
1.476055784E1;-2.543321609E0;-5.360096931E0;1.462514520E0
1.477887035E1;-6.738162041E-2;-3.066806793E0;1.407587647E0
1.479718116E1;2.018046379E0;-1.059493065E0;1.431571245E0
1.481549171E1;3.949909449E0;5.381727219E-1;1.427354932E0
1.483380227E1;6.471374989E0;2.512115002E0;-1.030776352E-1
1.485211350E1;8.105339050E0;3.888025761E0;-1.190471768E0
1.487042290E1;8.068099022E0;3.689925194E0;-9.391988516E-1
1.488873315E1;6.976922512E0;3.525019169E0;-1.142417908E0
1.490704383E1;5.287033081E0;3.464760780E0;-7.949644327E-1
1.492535402E1;4.147346973E0;3.076151848E0;3.556867242E-1
1.494366464E1;3.253559828E0;2.321147442E0;1.001961470E0
1.496197520E1;1.489792585E0;1.939275742E0;1.839572430E0
1.498028649E1;4.776374102E-1;2.465023518E0;1.521483064E0
1.499859601E1;2.955747843E-1;3.233949184E0;2.200926781E0
1.501690632E1;-4.549156427E-1;3.039634228E0;4.674190521E0
1.503521688E1;-1.112839937E0;1.184778214E0;3.623731613E0
1.505352842E1;-1.913300514E0;-1.105404854E0;1.476226330E0
1.507183775E1;-4.364887238E0;-2.930495262E0;-1.060624599E1
1.509014978E1;-1.294040799E0;-1.723866463E0;-6.158008575E0
1.510845887E1;2.084889412E0;-4.885107994E0;-3.970093012E0
1.512676900E1;4.648839474E0;-5.735976219E0;-2.724715471E0
1.514508243E1;4.306227684E0;-3.524851799E0;-3.229653835E-1
1.516338499E1;5.405542850E0;-2.510470390E0;7.553887367E-2
1.518170043E1;7.934396267E0;-3.505654335E0;-1.531350613E-1
1.520000720E1;9.984348297E0;-1.042286873E0;9.521863461E-1
1.521830836E1;1.004566097E1;8.498706818E-1;1.013595104E0
1.523662704E1;8.813386917E0;8.145933151E-1;-2.285864353E-1
1.525494217E1;8.764677048E0;8.874588013E-1;-2.147990704E0
1.527324852E1;8.513516426E0;3.216190338E-1;-2.771775007E0
1.529156030E1;6.450767040E0;-2.207146645E0;-2.289408922E0
1.530987330E1;3.933969259E0;-5.794964790E0;-8.677170277E-1
1.532818416E1;1.456078053E0;-9.279506683E0;7.378968000E-1
1.534649454E1;-1.377475381E0;-1.057814980E1;2.228081226E0
1.536479899E1;-4.163800240E0;-9.283199310E0;3.066048384E0
1.538311534E1;-5.849383354E0;-5.790032387E0;1.286210775E0
1.540142560E1;-5.754422188E0;-1.951578140E0;-2.529668570E0
1.541973622E1;-5.511008739E0;-4.215888977E-1;-1.096338034E0
1.543804647E1;-3.940964460E0;6.349191666E-1;6.428229213E-1
1.545635727E1;4.801845551E-1;1.387388229E0;4.175325036E-1
1.547466758E1;3.991721153E0;1.396315098E0;6.693084836E-1
1.549297906E1;4.628409386E0;9.605102539E-1;2.074770451E0
1.551128852E1;9.265098572E-1;1.095085144E0;1.341603279E0
1.552960176E1;-2.637131214E0;2.381273746E0;1.828511119E0
1.554790945E1;-4.119117737E0;3.620390654E0;3.210999489E0
1.556622282E1;-5.168289661E0;3.015352726E0;4.085694313E0
1.558453020E1;-5.447840691E0;2.222654343E0;4.548293114E0
1.560282886E1;-6.420672417E0;1.539881706E0;5.214405060E0
1.562115235E1;-7.699745655E0;1.437640667E0;5.380024433E0
1.563946200E1;-8.081587791E0;2.143256664E0;5.035079002E0
1.565777194E1;-7.869204044E0;3.649635792E0;4.086668015E0
1.567608262E1;-6.954008579E0;5.544869900E0;2.902292728E0
1.569439306E1;-2.348934174E0;6.591826916E0;1.750267029E0
1.571270343E1;3.658299923E0;5.828731537E0;-1.560976505E0
1.573101314E1;7.679089069E0;4.093964100E0;-2.449505329E0
1.574932424E1;8.900039673E0;2.116611958E0;2.587971687E0
1.576763486E1;8.064955711E0;6.107544899E-1;5.106822014E0
1.578594524E1;-1.394408226E0;1.219079018E0;-4.705275536E0
1.580424969E1;1.495604038E0;1.226849556E-1;-3.913263321E0
1.582256648E1;7.244087219E0;-1.009752464E1;1.313379574E1
1.584087734E1;2.770630360E0;-1.993440247E1;-7.153811455E0
1.585918668E1;-1.773790359E0;-5.518936157E0;-2.320999146E0
1.587749742E1;-6.078884602E0;2.494779587E0;2.486959100E-1
1.589580797E1;-8.903545380E0;1.728804111E0;1.511222124E0
1.591411841E1;-7.800216198E0;-1.181845188E0;-4.784030318E-1
1.593242769E1;-2.487884998E0;-4.986762047E0;2.049245358E0
1.595073922E1;1.255323410E0;-5.019493103E0;1.942596078E0
1.596904898E1;1.018132210E0;-3.895411491E0;3.981662989E-1
1.598736034E1;-9.951548576E-1;-3.830720901E0;1.723019779E-1
1.600566577E1;-1.709306240E0;-4.062053680E0;4.584649801E-1
1.602398096E1;-3.176486492E-1;-3.535303116E0;4.596984386E-1
1.604228493E1;1.335968256E0;-2.475039482E0;2.917221785E-1
1.606059927E1;1.970634460E0;-7.801303864E-1;1.592576504E-2
1.607891233E1;3.334999800E0;6.655168533E-1;-8.266654611E-1
1.609722271E1;5.883588791E0;1.395705223E0;-1.779991865E0
1.611553326E1;7.800762177E0;1.808369637E0;-2.139924288E0
1.613384211E1;7.955831051E0;2.507829189E0;-2.332405090E0
1.615215414E1;7.301004410E0;3.137606621E0;-2.288089275E0
1.617046476E1;6.574147701E0;3.640953064E0;-1.291207552E0
1.618877501E1;5.179529190E0;4.025442123E0;1.845651865E-1
1.620708557E1;3.212697983E0;4.439304352E0;1.800279975E0
1.622539618E1;1.748482585E0;4.731008053E0;1.861076355E0
1.624369270E1;1.253013611E-1;5.090132236E0;2.055732727E0
1.626200638E1;-1.102508783E0;5.324704647E0;4.553213120E0
1.628031626E1;-1.517436862E0;5.286187172E0;7.200947762E0
1.629864037E1;-2.078954220E0;3.806791306E0;5.588376045E0
1.631694818E1;-3.090529203E0;1.449758053E0;-8.021841049E-1
1.633525874E1;-6.860379219E0;-2.157403946E0;-1.036331177E1
1.635356936E1;-2.047232628E0;-3.073567390E0;-1.594963074E-1
1.637187674E1;3.130980015E0;-6.963689804E0;-1.058897495E0
1.639017906E1;7.473813057E0;-9.017287254E0;-2.908410311E0
1.640851074E1;8.235065460E0;-6.230954170E0;-5.608091831E0
1.642680323E1;8.167664528E0;-2.813528061E0;-2.080903530E0
1.644511672E1;9.918722153E0;-1.111886024E0;1.197323084E0
1.646342947E1;1.125385571E1;5.771341324E-1;8.531036377E-1
1.648174210E1;9.270449638E0;-2.896728516E-1;-3.291671515E0
1.650005254E1;7.458456516E0;-9.905080795E-1;-4.559971809E0
1.651836066E1;5.904856682E0;-5.691719055E-1;-3.061608315E0
1.653667359E1;4.412960529E0;-1.344198227E0;-1.103869200E0
1.655498128E1;3.610476494E0;-3.217558861E0;-1.594448090E-1
1.657328970E1;2.559419155E0;-5.742438316E0;-1.985144615E-1
1.659160508E1;8.693594933E-1;-8.138424873E0;6.155755520E-1
1.660990527E1;-1.669833660E0;-9.073477745E0;2.064256191E0
1.662821534E1;-4.332612514E0;-7.810029030E0;3.180578470E0
1.664652498E1;-5.634894371E0;-4.887634277E0;3.127532959E0
1.666483627E1;-5.068660736E0;-1.931384087E0;1.080382228E0
1.668314542E1;-3.667196751E0;-2.407217026E-1;-2.737408280E-1
1.670146648E1;-2.221729279E0;7.183961868E-1;1.254753590E0
1.671977826E1;-3.459501266E-2;1.434055328E0;1.711323500E0
1.673808875E1;3.962923527E0;2.420234680E0;1.283873558E0
1.675639937E1;5.937632084E0;2.956694126E0;7.952880859E-1
1.677470968E1;2.718414307E0;3.286993504E0;1.221461892E-1
1.679302000E1;-2.154999733E0;3.763932943E0;6.968886852E-1
1.681133031E1;-3.014425755E0;2.909876108E0;2.221992016E0
1.682964081E1;-3.916303158E0;9.502329826E-1;3.135813236E0
1.684795137E1;-5.588787079E0;-9.382233620E-1;3.916490078E0
1.686626199E1;-7.200384140E0;-2.111655235E0;4.429396629E0
1.688457230E1;-8.228914261E0;-1.925175667E0;3.944673061E0
1.690288402E1;-8.418513298E0;-3.228001595E-1;3.031228781E0
1.692119311E1;-8.070082664E0;1.802865982E0;2.756869793E0
1.693950348E1;-7.590574741E0;3.643076420E0;2.497002840E0
1.695781398E1;-6.710540771E0;4.998896599E0;1.789120078E0
1.697612448E1;-2.387829781E0;5.694616795E0;-4.514579773E-1
1.699443492E1;3.451543331E0;5.451704025E0;-5.047363281E0
1.701273418E1;6.780427933E0;4.820357800E0;-3.762238026E0
1.703104523E1;8.644816399E0;4.365183353E0;1.507704139E0
1.704935554E1;7.840320110E0;5.642488956E0;-4.689954519E-1
1.706766659E1;1.093276787E1;5.193102837E0;9.168455601E-1
1.708597666E1;1.568200588E0;-1.155505180E1;2.599793434E0
1.710428618E1;-1.264496326E0;-1.839649773E1;-5.300030231E0
1.712259619E1;-3.244274616E0;-1.019068050E1;7.691372633E-1
1.714090699E1;-5.778969765E0;-8.664107323E-1;1.612519383E0
1.715921889E1;-6.797856331E0;1.597986698E0;1.436780214E0
1.717752932E1;-9.141222954E0;-3.647212982E-1;5.539013147E-1
1.719583903E1;-8.113643646E0;-2.191617966E0;1.731355429E0
1.721415184E1;-6.653836250E0;-3.612734795E0;2.624536514E0
1.723246026E1;-5.067669868E0;-5.627766609E0;2.685634375E0
1.725077137E1;-2.858449459E0;-6.949204445E0;2.488350391E0
1.726908108E1;9.539577961E-1;-5.043811798E0;2.165927172E0
1.728739115E1;3.683562994E0;-2.626444817E0;1.433145046E0
1.730571580E1;5.538973331E0;-1.076412201E-1;-7.960398197E-1
1.732402294E1;5.284128666E0;2.679348946E0;-2.753978252E0
1.734233265E1;4.795384884E0;3.802120686E0;-2.329962730E0
1.736064162E1;4.917507648E0;4.330995083E0;-2.055729389E0
1.737895419E1;4.794113636E0;4.854498386E0;-2.351889372E0
1.739726499E1;4.505054474E0;4.474397659E0;-2.720999002E0
1.741557549E1;4.471869469E0;2.984272003E0;-2.424679518E0
1.743388586E1;4.230735779E0;1.312309265E0;-1.568236113E0
1.745219636E1;3.536817074E0;8.097848892E-1;-8.688087463E-1
1.747050673E1;1.567370057E0;1.084284782E0;3.729784489E-1
1.748881705E1;1.037017822E0;1.634848595E0;3.280524254E0
1.750712785E1;-2.473777533E-1;2.289854050E0;6.014035702E0
1.752543786E1;-4.380656242E0;2.227747917E0;-2.213336229E0
1.754374964E1;-8.718277931E0;2.013169289E0;-7.998982430E0
1.756205922E1;-6.403354645E0;1.249632835E0;-1.143460512E0
1.758036935E1;1.952698588E0;7.597923279E-3;6.639211178E-1
1.759868021E1;5.548267365E0;-2.533475876E0;2.741749287E-1
1.761699040E1;8.079820633E0;-3.433459282E0;-4.680414200E0
1.763530072E1;6.048886776E0;-1.877120972E0;-4.619091511E0
1.765361140E1;3.857450485E0;-1.554192543E0;-1.945588589E0
1.767192305E1;2.749518633E0;-3.272757530E0;-6.344430447E-1
1.769022165E1;3.355365276E0;-5.429076195E0;1.870476246E0
1.770854271E1;5.079704285E0;-1.797411919E0;2.646333456E0
1.772684844E1;8.394166946E0;-6.220684052E-1;-8.561637402E-1
1.774516364E1;9.694000244E0;-4.251854897E0;-3.602913141E0
1.776347420E1;8.879892349E0;-4.281210899E0;-3.914261580E0
1.778178451E1;7.961640835E0;-7.833642960E-1;-2.843059063E0
1.780009244E1;6.403861046E0;9.300708771E-2;-2.122354984E0
1.781840074E1;4.952507496E0;-1.787801743E0;-1.573714018E0
1.783671594E1;3.378141165E0;-4.178277016E0;-9.985110760E-1
1.785502039E1;1.177967668E0;-6.660792351E0;2.227666378E-1
1.787333321E1;-1.260294199E0;-8.259616852E0;1.136195183E0
1.789164706E1;-3.359947205E0;-9.556728363E0;1.661284089E0
1.790995768E1;-4.893262863E0;-9.370469093E0;6.553270817E-1
1.792826830E1;-5.554632664E0;-6.412817001E0;-1.973944426E0
1.794657855E1;-6.587230682E0;-3.337040901E0;-9.132200480E-2
1.796488905E1;-5.975738049E0;-5.036401749E-1;4.127516747E-1
1.798319827E1;-3.392992020E0;2.310694695E0;4.223088622E-1
1.800150992E1;-1.021570921E0;3.735421181E0;2.460793108E-1
1.801982030E1;4.818139076E-1;4.234527588E0;1.534759521E0
1.803813085E1;1.708107471E0;4.135571480E0;2.474694252E0
1.805644135E1;1.709647655E0;3.936438084E0;1.354645014E0
1.807475179E1;-1.118426800E0;3.334846497E0;6.734147668E-2
1.809306234E1;-4.446932793E0;3.319594383E0;9.150180817E-1
1.811137144E1;-5.351672173E0;3.139070988E0;2.582369328E0
1.812968322E1;-5.927010059E0;3.345838070E0;2.607185841E0
1.814799390E1;-6.961704254E0;4.036237717E0;2.135316372E0
1.816630403E1;-7.568093300E0;4.945955276E0;2.201758385E0
1.818461483E1;-7.648638248E0;5.955966473E0;2.112607479E0
1.820291318E1;-7.312678337E0;7.001574039E0;1.215270281E0
1.822122508E1;-6.627994061E0;7.933056355E0;-3.694036007E-1
1.823954852E1;-3.493007660E0;8.527321815E0;-3.632155657E0
1.825785633E1;7.815433979E0;6.302580833E0;-8.867430687E0
1.827616689E1;1.658673668E1;-1.380549431E0;-9.581604004E-1
1.829447720E1;2.008155632E1;-1.045095158E1;3.071110487E0
1.831278898E1;1.548011017E1;-5.418097019E0;-4.170570850E0
1.833109709E1;6.577541828E0;1.185236454E0;9.660725594E-1
1.834940857E1;3.040714741E0;-8.977313042E-1;6.441507816E0
1.836772212E1;4.489788532E0;-9.123178482E0;7.181380272E0
1.838602950E1;-1.061848164E0;-1.140173531E1;-3.760539055E0
1.840433981E1;-8.982570648E0;-4.658889294E0;-8.506792068E0
1.842265062E1;-8.531055450E0;1.628384590E-1;1.104248405E0
1.844096130E1;-9.970174789E0;-6.134009361E-1;5.018898487E0
1.845927118E1;-1.219464397E1;-4.525003433E0;4.912483692E0
1.847758174E1;-1.212206841E1;-7.250329018E0;2.112052917E0
1.849588564E1;-1.087974930E1;-6.631868362E0;-5.014642477E-1
1.851420267E1;-7.162359238E0;-3.654971123E0;-2.855779171E0
1.853251354E1;-5.423485279E0;-1.433810234E0;-1.549219847E0
1.855082360E1;-4.369695187E0;-4.123029709E-1;-3.368929625E-1
1.856913435E1;-2.911747217E0;1.379222870E-1;4.373606443E-1
1.858744442E1;-1.179522991E0;1.907405853E-1;8.147668839E-1
1.860575516E1;1.135989189E0;-5.292921066E-1;1.144336462E0
1.862405296E1;4.251863480E0;-7.328262329E-1;2.112805367E0
1.864237383E1;8.622173309E0;3.720283508E-2;2.600728512E0
1.866067761E1;1.217168999E1;1.371441841E0;1.044028640E0
1.867899702E1;1.293773556E1;2.910275459E0;-2.583582401E-1
1.869730715E1;1.004695797E1;4.683597088E0;-1.578723907E0
1.871561783E1;6.892197132E0;5.634138584E0;-3.100739717E0
1.873392809E1;5.588253021E0;5.626804829E0;-3.192244530E0
1.875223748E1;4.641299248E0;4.205027580E0;-2.743273735E0
1.877054926E1;3.171629429E0;1.015408516E0;-1.643343806E0
1.878885958E1;2.026978493E0;-1.477520943E0;-1.048037410E0
1.880717013E1;1.431766272E0;-1.549699783E0;-1.183459520E0
1.882548051E1;5.024639368E-1;1.088998795E0;-2.322594404E0
1.884379076E1;-1.075162530E0;3.337490082E0;-5.464042664E0
1.886210156E1;9.818446636E-1;3.565825462E0;-3.925754070E0
1.888041176E1;3.300154448E0;1.565182686E0;-7.054901123E-1
1.889872219E1;3.675317764E0;-2.222598076E0;1.696518421E0
1.891703324E1;4.240038395E0;-5.593529701E0;-3.199841499E0
1.893534337E1;8.336710930E0;-3.502095222E0;-5.518104553E0
1.895365508E1;7.850227356E0;-2.169642448E0;-1.613063216E0
1.897196418E1;6.518990517E0;-1.523610115E0;2.847800255E-1
1.899027571E1;8.159920692E0;-3.061351776E-1;-2.330258846E0
1.900858529E1;1.010939980E1;-1.531645775E0;-5.213720322E0
1.902689567E1;5.296497822E0;-6.482722282E0;-2.492055655E0
1.904520586E1;1.401258230E0;-9.283990860E0;6.936390400E-1
1.906351672E1;-8.733236790E-1;-1.274115658E1;2.650618076E0
1.908182820E1;-4.242427349E0;-1.616099548E1;4.231328487E0
1.910013814E1;-7.130478859E0;-1.549263287E1;4.382027626E0
1.911844492E1;-7.549522400E0;-7.659485817E0;-8.673479557E-1
1.913675377E1;-5.952511311E0;-3.792734146E-1;-3.762110710E0
1.915506878E1;-5.292340755E0;2.824563980E0;3.372015655E-1
1.917337568E1;-3.892187834E0;4.712748528E0;1.924259782E0
1.919168984E1;-3.013515949E0;5.463032246E0;2.038930416E0
1.921000021E1;-2.473570585E0;5.713436127E0;2.032849789E0
1.922830790E1;-2.164211273E0;5.798314571E0;2.145633936E0
1.924660973E1;-2.566689491E0;5.641401768E0;2.134095192E0
1.926492554E1;-4.510042191E0;5.424180508E0;2.326830864E0
1.928324555E1;-6.480003357E0;5.456651211E0;2.676603317E0
1.930153853E1;-6.451400757E0;4.721449852E0;3.510995865E0
1.931986282E1;-6.212668419E0;4.055390835E0;3.592742920E0
1.933817289E1;-6.921231747E0;3.903121948E0;2.974072218E0
1.935648394E1;-7.694502831E0;3.950412273E0;2.438041925E0
1.937479425E1;-7.646430016E0;4.188242912E0;8.908337355E-1
1.939310365E1;-7.010641098E0;3.232591629E0;-6.089316845E0
1.941141531E1;6.684077740E0;9.642801285E-1;-1.569256973E1
1.942972587E1;1.663928223E1;-3.083193779E0;4.101944447E0
1.944803624E1;2.086699486E1;-8.872648239E0;9.422029257E-1
1.946634655E1;1.042975998E1;-7.039167881E0;-7.339983940E0
1.948465711E1;1.758358002E0;2.046095848E0;-4.287023544E0
1.950296761E1;-1.718342781E0;4.282803059E0;-6.759179235E-1
1.952127670E1;-2.220491409E0;5.488862038E0;3.889273405E-1
1.953958830E1;-4.042825699E-1;-1.656465054E0;9.318582416E-1
1.955789886E1;1.332356930E0;-1.288558006E1;1.698040843E0
1.957620935E1;2.293390274E0;-1.179100037E1;-2.193098307E0
1.959450825E1;-8.200945854E-1;-4.250745773E0;-2.908865213E0
1.961283053E1;-3.943336487E0;-9.204998016E-1;3.914848864E-1
1.963114145E1;-6.075038910E0;-1.315082550E0;1.632813931E0
1.964945415E1;-7.791146278E0;-2.725284576E0;1.778064489E0
1.966776159E1;-8.676008224E0;-3.001983643E0;1.709961176E0
1.968606068E1;-7.468804359E0;-2.544976234E0;1.223968625E0
1.970438259E1;-4.408966541E0;-2.490513802E0;8.791209459E-1
1.972268234E1;-1.589389324E0;-2.331231117E0;7.270424366E-1
1.974098966E1;-1.104023457E-1;-8.028507233E-1;1.225377202E0
1.975930315E1;6.380009651E-1;8.816051483E-1;2.470314026E0
1.977761353E1;7.798426151E-1;1.964074135E0;2.849203587E0
1.979593324E1;6.932811737E-1;2.741758347E0;2.426731110E0
1.981424569E1;1.001571178E0;3.494260311E0;1.296740174E0
1.983255594E1;9.617168903E-1;3.817054749E0;-1.630471945E-1
1.985086778E1;1.841103792E0;2.774744034E0;-2.528472900E0
1.986917681E1;3.162651539E0;1.795483589E0;-4.656451702E0
1.988748914E1;3.861125469E0;9.611749649E-1;-7.935283661E0
1.990579292E1;4.584541798E0;1.133687973E0;-5.675364494E0
1.992410806E1;2.837476254E0;1.232697487E0;-2.160385132E0
1.994241862E1;8.360742331E-1;1.198786736E0;-3.530292511E-1
1.996071349E1;8.570519686E-1;1.434365749E0;2.560939789E-1
1.997903955E1;1.918481350E0;1.637347221E0;-6.782984734E-1
1.999735029E1;2.184034824E0;2.684469223E-1;-6.804337502E0
2.001566060E1;5.155937672E0;-1.827006340E0;-4.301681042E0
2.003396512E1;5.404397964E0;-2.597071648E0;-1.711996794E0
2.005228142E1;4.917237759E0;-2.790852547E0;-1.701159954E0
2.007059203E1;7.993235111E0;-3.078093529E0;-2.599844933E-1
2.008890235E1;9.428978920E0;-2.256834984E0;2.337178469E0
2.010721291E1;8.729269028E0;-2.018861771E0;-9.130291939E-1
2.012551187E1;1.033391094E1;-3.437813759E0;-9.328279495E0
2.014382377E1;8.233337402E0;-2.007442474E0;-6.086246490E0
2.016215410E1;4.696027756E0;-8.581018448E-1;-2.919163227E0
2.018044452E1;2.817878246E0;-3.641874313E0;-3.671341896E0
2.019875379E1;5.509858131E-1;-7.698060989E0;-2.346403122E0
2.021706740E1;-1.133366585E0;-1.090351772E1;9.914636612E-3
2.023537760E1;-4.034118652E0;-1.307729626E1;1.656876564E0
2.025369664E1;-6.302619934E0;-1.171214962E1;-1.428480625E0
2.027200689E1;-6.381261826E0;-6.510699272E0;-3.302680254E0
2.029031861E1;-6.644374371E0;-2.791285515E0;3.957305253E-1
2.030862801E1;-6.373244762E0;-7.972240448E-2;2.368854523E0
2.032693832E1;-4.787810802E0;2.156635284E0;1.542822361E0
2.034524949E1;-2.762767315E0;3.705370426E0;1.398295879E0
2.036356041E1;-7.108583450E-1;4.764239788E0;2.179485083E0
2.038186981E1;2.367000580E-1;5.310235977E0;2.565979004E0
2.040017762E1;-1.255217552E0;5.047360897E0;2.554085732E0
2.041849050E1;-4.249253273E0;4.292848110E0;2.642549515E0
2.043680130E1;-6.079653740E0;4.234184742E0;3.803892136E0
2.045511174E1;-6.956360817E0;3.719740152E0;4.000982285E0
2.047341851E1;-6.861228466E0;3.055726528E0;3.469375610E0
2.049173383E1;-6.843155861E0;3.089629650E0;3.250940800E0
2.051004304E1;-7.538863182E0;3.762676239E0;3.212295771E0
2.052835354E1;-7.629625320E0;5.473767757E0;2.623050213E0
2.054665464E1;-7.074084759E0;6.481838226E0;6.924285889E-1
2.056496642E1;5.253548622E0;6.383826256E0;-1.173688412E1
2.058327417E1;1.932906151E1;2.173676491E0;-5.692109585E0
2.060159400E1;2.173888016E1;-6.799559116E0;-6.848692894E-3
2.061990560E1;1.552557945E1;-9.926048279E0;-2.930148840E0
2.063821646E1;1.445898914E1;-2.305040836E0;-3.268485546E0
2.065652665E1;7.146425247E0;-1.152249146E1;-5.420920253E-1
2.067483129E1;-5.491703033E0;-1.072293282E1;8.611726761E-2
2.069314783E1;-1.016204834E1;-2.973259449E0;-3.304336071E-1
2.071145808E1;-8.431216240E0;2.460406303E0;4.061020851E0
2.072976882E1;-7.907155991E0;4.048575878E0;5.398470879E0
2.074807920E1;-7.837232113E0;2.685047150E0;4.032029629E0
2.076638957E1;-9.004852295E0;-6.315631866E-1;2.355389595E0
2.078468872E1;-1.024255085E1;-4.100996971E0;1.896071672E0
2.080299872E1;-1.072860718E1;-6.561769485E0;1.747010827E0
2.082130898E1;-9.005304337E0;-6.776827812E0;1.217953205E0
2.083962088E1;-6.233118057E0;-5.277295113E0;2.352036834E-1
2.085793211E1;-3.628205776E0;-3.628252029E0;1.312706470E-1
2.087624224E1;-1.000336885E0;-2.739669800E0;7.519837618E-1
2.089455170E1;1.801838398E0;-2.920075417E0;1.664776921E0
2.091286299E1;4.700766563E0;-3.060093880E0;2.326728582E0
2.093117306E1;9.394980431E0;-1.024002075E0;8.690584898E-1
2.094948343E1;1.486182404E1;1.481555939E0;-1.246703148E0
2.096779393E1;1.496969795E1;3.237245560E0;-1.236869574E0
2.098610479E1;1.143534088E1;5.144863129E0;-2.021120787E0
2.100441492E1;8.430410385E0;6.041843414E0;-2.608052492E0
2.102272560E1;6.231040478E0;6.237297058E0;-2.708365202E0
2.104104892E1;4.255505085E0;6.352643013E0;-1.765038729E0
2.105935679E1;2.446448803E0;4.669864655E0;-4.186195135E-1
2.107766765E1;1.265210152E0;2.419161797E0;6.908879280E-1
2.109597790E1;1.380305052E0;1.097331047E0;2.199515104E0
2.111428846E1;1.821848512E0;4.267549515E-1;2.774027824E0
2.113260024E1;2.161027193E0;2.013616562E-1;1.673299789E0
2.115090933E1;-1.200130582E0;-2.937694550E0;-1.471377087E1
2.116922319E1;9.555642605E-1;-4.775539398E0;-3.020423651E0
2.118752172E1;1.335464597E0;-7.771492958E0;9.124450684E-1
2.120584095E1;5.587724686E0;-8.064736366E0;-3.047338963E0
2.122415102E1;1.094857502E1;-4.038619995E0;-7.953510284E-1
2.124244717E1;1.126791096E1;-4.113826752E-1;1.482684135E0
2.126077207E1;1.044763660E1;1.693449974E0;-1.097643137E0
2.127908275E1;9.731773376E0;2.703024387E0;-3.495169640E0
2.129739300E1;7.630573750E0;-2.473802567E-1;-2.115823030E0
2.131569880E1;4.074141026E0;-4.936267853E0;-1.657612443E0
2.133401412E1;2.328229189E0;-9.213407516E0;-9.201526642E-3
2.135232449E1;-4.619319439E-1;-1.563880825E1;1.591383338E0
2.137062638E1;-6.742481232E0;-2.205905151E1;7.845354676E-1
2.138894549E1;-1.128357124E1;-1.677545166E1;-1.885435104E0
2.140725592E1;-1.073448372E1;-6.592592239E0;-1.433673978E0
2.142556648E1;-8.944965363E0;-6.310882568E-1;-5.796691775E-1
2.144387075E1;-5.925469875E0;3.296237469E0;1.861550331E0
2.146218735E1;-2.394059658E0;5.724391937E0;9.964081645E-1
2.148049388E1;-4.743061066E-1;4.711299896E0;5.350885868E0
2.149880804E1;4.507892132E0;6.607728004E0;-6.822675705E0
2.151711878E1;1.435338974E0;6.465172768E0;2.120720387E0
2.153542940E1;-3.047198057E0;5.093399525E0;6.244155884E0
2.155373971E1;-6.642803669E0;4.777011871E0;5.463927269E0
2.157205143E1;-8.106912613E0;4.718827248E0;4.158955574E0
2.159034710E1;-7.294631958E0;4.010348320E0;4.401147366E0
2.160867413E1;-7.761888027E0;3.524922132E0;5.008168221E0
2.162698164E1;-8.940765381E0;3.498870134E0;4.176640511E0
2.164529214E1;-9.205098152E0;3.992272377E0;2.487826824E0
2.166360300E1;-8.548629761E0;4.363675117E0;-1.113893509E0
2.168191276E1;-5.848588943E-1;3.530120850E0;-7.355681896E0
2.170022430E1;1.038258553E1;2.268914700E0;-4.929928303E0
2.171853394E1;1.739036942E1;-2.677936554E0;-2.046628475E0
2.173684444E1;1.447498703E1;-7.559428215E0;-2.466257572E0
2.175515780E1;8.753770828E0;-6.438789368E-1;-8.519996405E-1
2.177346647E1;1.484621525E0;2.219363689E0;3.293293476E0
2.179177568E1;-3.949114084E0;2.815410614E0;1.999227166E0
2.181008630E1;-1.166332245E0;-5.525704861E0;-9.120122910E0
2.182839674E1;-3.059342861E0;-1.143492317E1;1.852095604E0
2.184670705E1;-6.486637592E0;-9.873136520E0;-4.674369812E0
2.186501767E1;-6.246742725E0;-2.107004642E0;2.468812466E0
2.188332335E1;-6.302556038E0;1.311994553E0;3.436346054E0
2.190163879E1;-7.814961433E0;7.134628296E-2;3.390436649E0
2.191994983E1;-8.551113129E0;-2.417281151E0;3.094045877E0
2.193825948E1;-7.496774673E0;-4.263902664E0;2.468441725E0
2.195656533E1;-5.508492470E0;-5.717423439E0;1.778355837E0
2.197488053E1;-3.542317152E0;-6.358138084E0;1.277285576E0
2.199319103E1;-1.119070768E0;-5.122247696E0;6.142929792E-1
2.201150018E1;1.182590485E0;-2.508596420E0;1.444222927E0
2.202981190E1;3.899549723E0;-4.883337021E-1;2.960761309E0
2.204812960E1;6.558793545E0;7.891359329E-1;3.110878706E0
2.206643277E1;8.375679016E0;3.136273861E0;1.594093919E0
2.208473729E1;9.935581207E0;4.204319954E0;-1.019199848E0
2.210305370E1;1.007621479E1;4.064314842E0;-1.659792304E0
2.212136420E1;7.703042984E0;3.977952480E0;-4.812666893E0
2.213967445E1;6.600272655E0;3.730910301E0;-6.019995213E0
2.215798269E1;5.351979256E0;4.124859810E0;-4.117879868E0
2.217629563E1;3.113954544E0;4.612986088E0;-3.967981339E-1
2.219460613E1;-1.546366811E0;3.597106934E0;1.842360973E0
2.221291797E1;-3.918827772E0;1.209781647E0;-1.913198233E0
2.223122712E1;-2.707487345E0;-1.029131889E0;-2.412455082E0
2.224953774E1;1.960126638E0;-2.338800430E0;-4.550287247E0
2.226784817E1;7.559770584E0;-2.273665428E0;-5.325262070E0
2.228615855E1;8.799503326E0;-3.722558975E0;-2.799087524E0
2.230446905E1;4.493619919E0;-3.034284592E0;-1.109632492E0
2.232277948E1;4.960313797E0;-1.541604996E0;1.280646324E0
2.234109022E1;9.084325790E0;-2.022373199E0;-3.791055679E-1
2.235940054E1;1.111868095E1;-2.860503197E0;-7.261495590E-1
2.237771079E1;1.087121296E1;-8.661909103E-1;1.642310619E-1
2.239602141E1;9.987564087E0;-6.159305573E-2;-7.803959846E-1
2.241433166E1;7.027958393E0;3.070726395E-1;-2.993526220E0
2.243264222E1;3.942749262E0;-1.899439812E0;-5.873924255E0
2.245095363E1;1.269908667E0;-5.357664108E0;-5.362747192E0
2.246926309E1;3.319569826E-1;-8.261075020E0;-1.106284380E0
2.248757517E1;-6.424913406E-1;-1.318918800E1;9.625936747E-1
2.250588433E1;-4.018473625E0;-1.766546249E1;2.555649281E0
2.252418872E1;-8.305231094E0;-1.490371132E1;1.065695763E0
2.254250538E1;-8.604324341E0;-6.616929054E0;-2.094380379E0
2.256081277E1;-7.510107040E0;-2.395053864E0;9.165889621E-1
2.257912577E1;-6.244697094E0;-2.264490128E-1;3.063439846E0
2.259743657E1;-3.073526144E0;1.644717693E0;2.151515961E0
2.261574713E1;4.408640862E-1;2.583108425E0;1.099437237E0
2.263405744E1;2.038981915E0;2.556456566E0;1.332534909E0
2.265236702E1;9.580755234E-2;2.119222164E0;2.327140331E0
2.267067849E1;-5.069957733E0;2.354525089E0;2.563791513E0
2.268898881E1;-7.301340103E0;3.700355291E0;3.272973776E0
2.270729943E1;-7.825512409E0;5.206103802E0;3.789379835E0
2.272560504E1;-7.812934875E0;6.205271244E0;4.214803696E0
2.274392054E1;-7.765248299E0;7.153643608E0;4.168540001E0
2.276222134E1;-8.048846245E0;7.880188942E0;3.453491211E0
2.278054148E1;-8.296415329E0;8.498460770E0;1.645316005E0
2.279885191E1;-6.895216942E0;8.101177216E0;-3.583029985E0
2.281716503E1;1.292303562E0;5.621186256E0;-1.128499413E1
2.283547284E1;1.189336586E1;1.485169888E0;-5.430813313E0
2.285378114E1;1.402966118E1;-5.521145821E0;-2.971515179E0
2.287209372E1;1.237939262E1;-9.950960159E0;-3.800575256E0
2.289040433E1;1.310780334E1;-1.367234993E1;-7.132985115E0
2.290871483E1;-2.973801136E0;-1.910781288E1;-2.846455097E0
2.292702514E1;-1.030436516E1;-6.861865997E0;1.125067949E0
2.294533546E1;-1.080142403E1;1.101746559E0;2.957457542E0
2.296364602E1;-9.671252251E0;4.434283257E0;5.338103294E0
2.298195804E1;-7.865437984E0;5.264287949E0;3.006273985E0
2.300026677E1;-7.546920300E0;3.043739319E0;2.104508400E0
2.301857745E1;-7.570561886E0;-1.055027008E0;1.943982482E0
2.303688825E1;-7.557818413E0;-6.011390686E0;3.068743467E0
2.305519856E1;-7.071619987E0;-9.556870461E0;3.518144846E0
2.307350906E1;-4.626925468E0;-9.285450935E0;2.357719183E0
2.309181937E1;-2.645099640E0;-6.827737808E0;8.905682564E-1
2.311013084E1;-8.482451439E-1;-4.668580055E0;5.622715950E-1
2.312844030E1;5.987291336E-1;-2.934759140E0;1.362081647E0
2.314675086E1;2.338657141E0;-1.254405022E0;2.119909763E0
2.316505843E1;4.582355499E0;9.222526550E-1;2.319401741E0
2.318336081E1;7.057717323E0;2.664425373E0;1.530008078E0
2.320168254E1;8.988754272E0;3.984510899E0;2.783682346E-1
2.321999285E1;8.468041420E0;5.604497433E0;-2.959501028E0
2.323830341E1;7.461738110E0;5.627350807E0;-3.287589788E0
2.325660212E1;7.707833767E0;5.335380554E0;-2.727612019E0
2.327491311E1;7.163016796E0;4.594979763E0;-2.948808670E0
2.329323673E1;6.121134758E0;2.825589657E0;-3.335009813E0
2.331154509E1;4.225011826E0;4.997835159E-1;-3.272950411E0
2.332985870E1;2.350167990E0;-4.813451767E-1;-2.677851200E0
2.334816602E1;3.306156397E-1;-1.889743805E-1;-5.200534821E0
2.336647194E1;2.924079299E-1;3.196430206E-2;-6.822684765E0
2.338478732E1;3.172426224E0;-4.566917419E-1;-1.475995898E0
2.340308915E1;3.745253801E0;-1.973209381E0;2.200324774E0
2.342140685E1;2.845576763E0;-3.553119659E0;7.927899361E-1
2.343971857E1;5.325250149E0;-3.595481873E0;-3.069641113E0
2.345802882E1;9.552551270E0;-2.387905121E0;-9.381220341E-1
2.347633944E1;1.012385654E1;-1.579674721E0;5.524365902E-1
2.349465000E1;9.183650017E0;-2.906074524E0;-4.514985561E0
2.351296055E1;7.712390423E0;-4.450709343E0;-8.175916672E0
2.353127087E1;5.589539051E0;-2.934739113E0;-2.811311960E0
2.354958143E1;3.604767323E0;-1.636648178E0;-2.784835815E0
2.356789192E1;1.582223296E0;-3.827190399E0;-2.814125776E0
2.358620260E1;6.025872231E-1;-7.086061478E0;2.892910242E-1
2.360451310E1;-1.608782411E0;-1.125932598E1;1.914577007E0
2.362282457E1;-4.843204498E0;-1.413378620E1;3.478878975E0
2.364113306E1;-7.644776344E0;-1.206928635E1;4.575511932E0
2.365944453E1;-6.190602303E0;-5.194774628E0;6.043887138E-2
2.367775484E1;-3.884789467E0;3.446531296E-1;-3.494823694E0
2.369606241E1;-3.440690517E0;2.111862659E0;-2.452841699E-1
2.371437571E1;-2.174834490E0;3.063760281E0;1.189330220E0
2.373267290E1;-6.448178291E-1;3.732845306E0;1.918226957E0
2.375098706E1;3.087167740E-1;4.305868149E0;2.266699791E0
2.376929402E1;-2.749619484E-1;4.664281368E0;1.684283853E0
2.378760641E1;-2.976574183E0;4.963602066E0;1.955785036E0
2.380591837E1;-5.319178104E0;5.298145294E0;3.390228033E0
2.382422777E1;-5.853779793E0;4.928298950E0;4.671031952E0
2.384253711E1;-6.325503826E0;4.804834366E0;4.424375534E0
2.386086219E1;-7.321043968E0;5.069278717E0;3.773450375E0
2.387915639E1;-8.166738510E0;5.473147392E0;2.987955570E0
2.389748056E1;-8.465862274E0;5.664466381E0;2.349606991E0
2.391579112E1;-8.221248627E0;5.561081409E0;-1.197878122E0
2.393409563E1;-1.963876247E0;2.801630020E0;-1.307318878E1
2.395241199E1;1.087967300E1;-1.000895500E0;-4.385278225E0
2.397072255E1;1.523998356E1;-7.302890778E0;2.823704481E-1
2.398903280E1;1.310763550E1;-9.811163902E0;-5.669220924E0
2.400734366E1;1.061011028E1;-6.541156769E-2;-7.905462265E0
2.402565398E1;1.162231445E1;1.780935764E0;2.478904009E0
2.404396429E1;6.738198757E0;-5.612518311E0;7.949838161E0
2.406227387E1;-4.121177673E0;-7.357877254E0;-8.883053064E-2
2.408058541E1;-1.161494827E1;-3.886493683E0;-1.195056725E1
2.409889554E1;-7.413901329E0;3.219351768E-1;1.887886524E0
2.411720628E1;-6.172016621E0;2.066560745E0;6.626854420E0
2.413551684E1;-6.972213745E0;7.574481964E-1;6.117358685E0
2.415382446E1;-7.099335194E0;-2.318918228E0;4.477618217E0
2.417213765E1;-6.878151894E0;-4.394341469E0;3.342033863E0
2.419044821E1;-6.528441906E0;-4.480247498E0;2.085354805E0
2.420875882E1;-5.043805122E0;-4.008720398E0;1.136638403E0
2.422706938E1;-3.286489010E0;-3.673943520E0;3.567319512E-1
2.424537970E1;-2.308016777E0;-2.864303589E0;1.013647318E-1
2.426369166E1;-1.079231977E0;-1.914361954E0;3.235783577E-1
2.428200075E1;9.120268822E-1;-9.422903061E-1;9.374361038E-1
2.430031137E1;3.400583506E0;7.278976440E-1;1.738575459E0
2.431862168E1;5.703428745E0;2.464543819E0;1.351203084E0
2.433693218E1;7.383527756E0;4.026988983E0;-2.005202770E0
2.435524256E1;7.948202133E0;4.087823391E0;-2.528165102E0
2.437355311E1;7.689296246E0;4.134900093E0;-2.051786900E0
2.439186489E1;6.354992867E0;4.314130306E0;-2.611978292E0
2.441017520E1;4.095663548E0;3.227846622E0;-3.117561817E0
2.442848448E1;2.888681650E0;1.723714828E0;-2.275211334E0
2.444679022E1;2.247467041E0;7.182636261E-1;-1.335330963E0
2.446510816E1;2.090664387E0;8.348112106E-1;-1.408748150E0
2.448341182E1;2.399808407E0;2.392237663E0;-1.759607911E0
2.450171518E1;1.772753954E0;3.467755795E0;-3.709655762E0
2.452002750E1;1.815506458E0;1.399990082E0;-4.960072994E0
2.453833751E1;4.334949493E0;-1.155733109E0;-1.386923432E0
2.455664795E1;6.150398254E0;-3.433578491E0;1.180555344E0
2.457495820E1;7.173127174E0;-4.238627434E0;1.751564503E0
2.459326925E1;8.496917725E0;-4.645175934E0;-9.911060333E-3
2.461157956E1;1.044195557E1;-1.916845322E0;-1.361047149E0
2.462988963E1;9.957939148E0;-3.831710815E-1;-4.916091919E0
2.464819781E1;8.025366783E0;-1.773927689E0;-7.712957382E0
2.466651008E1;5.227054596E0;-8.599033356E-1;-4.716811657E0
2.468482137E1;1.761314034E0;-8.958415985E-1;-3.773359299E0
2.470313174E1;-5.307435989E-3;-4.245705605E0;-2.473165751E0
2.472144138E1;-1.184666157E-1;-8.131000519E0;1.313372850E-1
2.473975158E1;-1.887162805E0;-1.392968750E1;2.868145466E0
2.475807336E1;-6.750945091E0;-1.947643661E1;4.810823917E0
2.477638404E1;-9.221852303E0;-1.611482048E1;-7.158797979E-1
2.479469454E1;-8.258951187E0;-7.040137291E0;-1.222366333E0
2.481302036E1;-7.151104927E0;-9.898376465E-1;1.251073837E0
2.483130424E1;-3.943484545E0;2.961445808E0;-8.191917539E-1
2.484961449E1;-1.694168568E0;4.952958107E0;-2.045823932E-1
2.486793616E1;-1.072501659E0;5.557882309E0;3.137414932E0
2.488624672E1;-7.997384071E-1;5.847409725E0;4.314599514E0
2.490455728E1;-9.948463440E-1;5.853156567E0;3.395960569E0
2.492286759E1;-2.123473644E0;5.715258598E0;2.698116302E0
2.494117821E1;-3.884412289E0;5.861887932E0;2.686662197E0
2.495948901E1;-6.095342636E0;6.287941456E0;3.570020199E0
2.497779908E1;-7.158280849E0;5.748376846E0;4.369023800E0
2.499610988E1;-6.933884621E0;5.221915245E0;3.684319019E0
2.501442020E1;-7.256551743E0;5.343623161E0;3.059904575E0
2.503273185E1;-7.525533676E0;5.353806496E0;2.718483448E0
2.505104040E1;-6.821485043E0;5.224626541E0;2.396044016E0
2.506935181E1;-5.449303627E0;3.618245125E0;-1.976534963E0
2.508766224E1;2.738420486E0;-2.889061928E0;-1.823342514E1
2.510597256E1;1.921590805E1;-1.013066959E1;-4.266852379E0
2.512428275E1;2.231685638E1;-1.692276764E1;-4.017830849E0
2.514259386E1;1.291131401E1;-6.680150986E0;-8.786577225E0
2.516090533E1;3.298401356E0;4.500182152E0;-5.813842297E0
2.517921424E1;-1.628321171E0;6.823665619E0;-1.386112690E0
2.519752510E1;-2.859884501E0;5.661990643E0;4.628732681E0
2.521583108E1;-9.416027069E-1;-7.479004860E-1;8.798987389E0
2.523414329E1;4.400053024E-1;-6.759442806E0;7.079858780E0
2.525245647E1;-8.355097771E-1;-7.776343346E0;3.499799728E0
2.527076996E1;-2.660108805E0;-4.389549255E0;-1.617564559E0
2.528908052E1;-3.716454983E0;-1.187368393E0;-3.728596210E0
2.530738784E1;-5.948596954E0;-2.724716187E0;-1.783909202E0
2.532569846E1;-7.826563358E0;-4.171229362E0;1.055805683E0
2.534400291E1;-7.642247200E0;-2.987616539E0;1.344765902E0
2.536230786E1;-6.187932968E0;-1.394505501E0;3.138662577E-1
2.538061646E1;-4.113426208E0;-1.196775436E0;-4.183007479E-1
2.539894045E1;-1.750161171E0;-1.155855179E0;-6.685498953E-1
2.541725064E1;-4.371645451E-1;2.259159088E-2;-1.368037462E-1
2.543556156E1;1.556456089E-1;1.629385948E0;8.190400600E-1
2.545387188E1;2.547986507E-1;3.009086609E0;1.518656969E0
2.547218127E1;5.135366917E-1;3.865414143E0;1.482931018E0
2.549049275E1;1.404033661E0;4.240508080E0;1.483559370E0
2.550880355E1;3.065969944E0;3.498602867E0;1.162294984E0
2.552711386E1;4.354276657E0;2.723007202E0;-5.249301195E-1
2.554542448E1;4.506619453E0;2.137472153E0;-3.125593185E0
2.556373474E1;4.389565468E0;1.268586159E0;-4.903970718E0
2.558204554E1;3.701634407E0;1.151263237E0;-4.173000813E0
2.560035579E1;2.541872978E0;1.062216759E0;-2.666433334E0
2.561866616E1;2.154076576E0;8.208522797E-1;-1.701970100E0
2.563697672E1;2.521105766E0;8.341474533E-1;-1.377710819E0
2.565528752E1;3.726733923E0;1.584536552E0;-1.508862972E0
2.567359900E1;4.830028534E0;1.795501232E0;-1.386752605E0
2.569190815E1;6.232610703E0;5.358505249E-2;-1.440183878E0
2.571021962E1;6.587995529E0;-2.580332756E0;-3.377673864E0
2.572851810E1;7.754302502E0;-3.085907936E0;-3.224074841E0
2.574683958E1;8.102705002E0;-3.156265259E0;-3.634657860E-1
2.576515014E1;8.553453445E0;-3.694488525E0;7.351500988E-1
2.578346070E1;8.858008385E0;-2.065540314E0;-5.293771744E0
2.580177235E1;6.710862160E0;-1.190747261E0;-8.793124199E0
2.582008163E1;3.244343758E0;-6.306552887E-2;-7.167180061E0
2.583838846E1;5.983085632E-1;-2.017863274E0;-3.267512083E0
2.585669774E1;4.546484947E-1;-7.378982544E0;-1.691111684E0
2.587501324E1;-1.077964306E-1;-1.057198238E1;1.573312283E-1
2.589332008E1;-2.568957806E0;-1.493326569E1;2.343973398E0
2.591163418E1;-6.486827850E0;-1.772041702E1;2.807721853E0
2.592994467E1;-7.043207169E0;-1.140395641E1;-3.281669855E0
2.594825523E1;-6.996066570E0;-4.367103577E0;-2.349132299E0
2.596656554E1;-6.546557426E0;2.561311722E-1;4.563516974E-1
2.598487030E1;-4.250559807E0;3.132463455E0;9.452682734E-1
2.600318642E1;-2.143662691E0;4.217041016E0;1.476245165E0
2.602149722E1;-6.413044930E-1;4.382190704E0;2.435943604E0
2.603980753E1;1.415610313E-1;4.461075306E0;2.893838882E0
2.605811809E1;-4.017257690E-1;4.329681396E0;2.922497034E0
2.607642865E1;-2.907870770E0;4.261535645E0;3.338784933E0
2.609473920E1;-5.430387020E0;4.974935532E0;3.965103626E0
2.611304836E1;-6.937545776E0;5.700332642E0;3.994320631E0
2.613136008E1;-7.602470875E0;5.891331673E0;3.508023739E0
2.614965562E1;-7.880325794E0;6.492110252E0;2.518109798E0
2.616798925E1;-7.544592381E0;7.020044327E0;1.382442474E0
2.618628046E1;-6.274833202E0;6.266942501E0;-1.097664833E-1
2.620460182E1;-1.391717434E0;4.075884819E0;-2.128522873E0
2.622291262E1;8.672993660E0;6.453027725E-1;-4.486040592E0
2.624122458E1;1.546970081E1;-6.956713676E0;-3.839532137E0
2.625953325E1;1.398207664E1;-1.283432388E1;-6.859191895E0
2.627784381E1;6.997181892E0;-3.216640949E0;-4.814232349E0
2.629615436E1;2.720570564E-1;1.848589420E0;-1.180287719E0
2.631446516E1;-6.108280182E0;2.044177532E0;2.237669230E0
2.633277554E1;-7.989083290E0;-4.189301491E0;-1.592419982E0
2.635108512E1;-1.475543499E0;-7.124930859E0;4.199857712E0
2.636939513E1;-3.974571228E-1;-6.051802635E0;-4.385881424E0
2.638770715E1;-3.302309752E0;-1.427303314E0;-3.803211212E0
2.640601747E1;-6.526261330E0;-9.825658798E-2;3.268610954E0
2.642432772E1;-7.993165493E0;-2.066989899E0;4.284239769E0
2.644264194E1;-6.815032005E0;-3.444694519E0;3.157457590E0
2.646094902E1;-3.629232883E0;-3.103131294E0;2.475519896E0
2.647925970E1;-9.642567635E-1;-3.154356003E0;3.123977900E0
2.649757001E1;7.927010059E-1;-3.991487503E0;3.518721819E0
2.651588063E1;2.199458599E0;-3.737817764E0;3.084826946E0
2.653419113E1;2.948177099E0;-1.707237244E0;2.354844093E0
2.655250144E1;3.437717676E0;8.212804794E-1;1.533753037E0
2.657081316E1;3.053535700E0;2.811935425E0;4.779134989E-1
2.658912231E1;1.617062092E0;4.102571487E0;-1.797959328E0
2.660743311E1;4.015905857E-1;4.582886219E0;-4.361200809E0
2.662573861E1;3.039054871E0;4.142164707E0;-2.847273111E0
2.664405368E1;4.373782635E0;3.642880917E0;-1.722035646E0
2.666236448E1;3.673663378E0;2.742187023E0;-1.905462265E0
2.668066253E1;2.518981457E0;1.576581001E0;-2.237078667E0
2.669898523E1;2.429856062E0;1.163726807E0;-2.152932405E0
2.671729603E1;2.878539801E0;1.288632393E0;-2.022045612E0
2.673560647E1;3.036365986E0;1.386158943E0;-1.801359892E0
2.675391098E1;2.650086403E0;1.729124546E0;-1.678913355E0
2.677221678E1;2.264362335E0;2.043196678E0;-2.008096933E0
2.679052704E1;1.629539728E0;2.021258354E0;-4.117959023E0
2.680883839E1;3.870938540E0;4.423942566E-1;-4.251562595E0
2.682716170E1;6.629390717E0;-6.747140884E-1;-1.935530901E0
2.684546908E1;8.471921921E0;-1.120966911E0;-1.465945959E0
2.686377970E1;8.631819725E0;-5.962314606E-1;-2.423373222E0
2.688208922E1;8.382211685E0;-2.452344894E-1;-2.498628616E0
2.690040113E1;1.080414486E1;-2.462428093E0;-1.670290470E0
2.691871144E1;1.186730766E1;-2.372990608E0;-7.971942425E-1
2.693702194E1;9.673380852E0;-1.145294189E0;-1.165107369E0
2.695533225E1;4.161362648E0;-1.778133392E0;-4.466267586E0
2.697364305E1;1.859019399E0;-6.762387276E0;-4.443806648E0
2.699195367E1;1.234361887E0;-1.052219677E1;1.420733929E0
2.701026466E1;-9.231960773E-1;-1.480582809E1;3.507067204E0
2.702857424E1;-5.480403900E0;-1.776219177E1;5.734171391E0
2.704688473E1;-8.695750237E0;-1.321993446E1;4.445939064E0
2.706519859E1;-6.072244644E0;-3.619849205E0;-6.168819904E0
2.708350683E1;-7.026012897E0;3.705692291E-2;-1.758370519E0
2.710181622E1;-6.163588047E0;2.874225616E0;1.793203473E0
2.712012672E1;-3.243655443E0;4.942728043E0;2.058706760E0
2.713843410E1;-8.853602409E-1;6.274723053E0;2.944004536E0
2.715674784E1;9.229979515E-1;6.935270309E0;3.644486904E0
2.717505821E1;5.976562500E-1;6.962210178E0;3.629291058E0
2.719335809E1;-2.473232508E0;5.680283546E0;4.212532043E0
2.721168207E1;-5.174643993E0;4.178945541E0;4.487511635E0
2.722998677E1;-5.192870617E0;2.606366158E0;5.011340141E0
2.724830020E1;-5.106147289E0;1.745689392E0;5.341276646E0
2.726660636E1;-6.326526642E0;1.375597954E0;4.659019470E0
2.728490758E1;-8.182544708E0;1.871660709E0;3.948098660E0
2.730323236E1;-9.097743034E0;3.043708801E0;1.317491889E0
2.732154096E1;-7.973485947E0;2.195354462E0;-9.271561623E0
2.733985299E1;8.204795837E0;2.006854057E0;-1.397271919E1
2.735814932E1;1.797438431E1;-7.276983261E-1;6.534564495E-2
2.737646275E1;2.283157730E1;-7.356237888E0;-2.559850216E-1
2.739477319E1;2.209423065E1;-3.138484478E0;-6.800467014E0
2.741308301E1;2.026099968E1;-4.525706768E0;4.517425537E0
2.743139491E1;3.340673447E-2;-1.311111832E1;4.328442574E0
2.744970492E1;-1.186404324E1;-5.613473415E0;-3.295017481E0
2.746801505E1;-1.467160416E1;-3.093934059E-1;-4.383478165E0
2.748632817E1;-1.071674347E1;2.390730381E0;6.311030388E0
2.750464722E1;-8.618500710E0;2.053189278E0;5.129109383E0
2.752294953E1;-9.446510315E0;-1.064890862E0;3.222542286E0
2.754126815E1;-1.095258522E1;-4.394604683E0;2.357355833E0
2.755957901E1;-1.141981411E1;-4.861077309E0;2.410211325E0
2.757788914E1;-8.667614937E0;-2.242094994E0;9.093716741E-1
2.759619982E1;-6.353213310E0;1.517410278E-1;2.675166428E-1
2.761451014E1;-5.062054157E0;1.180360794E0;3.026365638E-1
2.763282069E1;-4.343817234E0;6.057491302E-1;7.113538384E-1
2.765112606E1;-2.888963223E0;-1.150295258E0;9.318546057E-1
2.766942832E1;-8.590447903E-1;-3.920284271E0;2.058193445E0
2.768775212E1;3.299736023E0;-6.105255127E0;4.989623547E0
2.770606274E1;9.671662331E0;-4.938543320E0;6.858626842E0
2.772436158E1;1.438000107E1;-1.581442833E0;7.362792015E0
2.774268373E1;1.594247246E1;8.991003036E-1;3.302411318E0
2.776099319E1;1.312868404E1;2.126839161E0;-2.469637632E0
2.777930442E1;5.824969769E0;3.084841251E0;-1.016738892E1
2.779761522E1;7.448806286E0;2.738286972E0;-1.011295319E1
2.781592389E1;9.945986748E0;3.268420219E0;-7.110017776E0
2.783423640E1;8.195669174E0;4.262020588E0;-4.597548008E0
2.785254812E1;6.076193810E0;4.181611538E0;-2.953281403E0
2.787085721E1;4.715102673E0;3.386210442E0;-1.320152760E0
2.788916997E1;4.065580368E0;1.264885902E0;-1.256182194E-1
2.790747338E1;4.763058662E0;-1.483994484E0;7.453405857E-1
2.792578864E1;6.508170128E0;-3.880004883E0;1.154663563E0
2.794409920E1;7.463205814E0;-4.680397034E0;1.704417944E0
2.796240640E1;6.409399509E0;-3.272067070E0;2.373262882E0
2.798070817E1;5.325277328E0;-3.485752106E0;-1.568725109E-1
2.799903069E1;6.108346462E0;-3.857278824E0;-2.300717831E0
2.801734113E1;7.255651474E0;-3.958251953E0;-5.242835045E0
2.803564692E1;5.208964348E0;-2.261919022E0;-5.783207417E0
2.805396255E1;2.238499641E0;-2.515796661E0;-4.651859283E0
2.807227286E1;-1.755499840E-2;-6.453759193E0;-3.655394554E0
2.809058311E1;-2.690482140E-2;-9.584074974E0;1.400832415E0
2.810889373E1;-2.005506277E0;-1.449713421E1;4.556395531E0
2.812720429E1;-6.756179333E0;-1.756874466E1;6.112507343E0
2.814551460E1;-9.687509537E0;-1.239338493E1;8.923215866E-1
2.816381900E1;-7.667006493E0;-3.602822304E0;-4.622107983E0
2.818213572E1;-7.435039997E0;6.030530930E-1;-4.393755198E-1
2.820044323E1;-6.492712975E0;3.544827461E0;2.117761850E0
2.821875629E1;-3.445185661E0;5.746950150E0;1.945858598E0
2.823707026E1;-1.449369431E0;7.244380951E0;1.942267537E0
2.825536623E1;-1.475400925E-1;7.988722801E0;2.250887632E0
2.827367673E1;4.892506599E-1;8.137663841E0;2.418318272E0
2.829198851E1;1.886081696E-1;7.776141167E0;2.778881550E0
2.831029839E1;-1.547648907E0;6.968517303E0;2.846306801E0
2.832860920E1;-4.463732719E0;5.588280201E0;3.223528385E0
2.834692036E1;-5.855836391E0;3.816799164E0;4.745738506E0
2.836523056E1;-5.198075294E0;2.665991306E0;3.998957634E0
2.838354063E1;-4.841955185E0;2.800253391E0;2.070316315E0
2.840185131E1;-5.346120834E0;3.014304161E0;3.354749680E-1
2.842016113E1;-5.973388672E0;2.040466309E0;-5.577696800E0
2.843847193E1;9.910535812E-1;-2.351093292E-1;-1.267749214E1
2.845678145E1;1.258057213E1;-3.255637169E0;-1.982797146E0
2.847510635E1;1.925546455E1;-7.042942047E0;-3.796931982E0
2.849341081E1;1.287693405E1;-7.551085949E0;-8.304499626E0
2.851172485E1;6.238749027E0;1.419269562E0;-3.236563921E0
2.853003516E1;8.554553986E-1;4.126229286E0;-2.492774725E-1
2.854834590E1;1.965919971E0;-2.547573090E0;3.949413300E-1
2.856665640E1;9.162261009E0;-9.725181580E0;6.124853134E0
2.858496671E1;7.107334137E-1;-8.087707520E0;6.353035927E0
2.860327245E1;-1.035438919E1;-1.292449474E0;-8.575300217E0
2.862158764E1;-1.030966759E1;2.844119072E0;-4.165551186E0
2.863989997E1;-9.390050888E0;2.990799904E0;4.335863590E0
2.865820748E1;-9.667614937E0;-6.045527458E-1;4.879021645E0
2.867651450E1;-9.450889587E0;-4.806342125E0;4.734288692E0
2.869482963E1;-7.691447735E0;-7.788813591E0;4.172086239E0
2.871314019E1;-4.825091362E0;-8.142734528E0;2.885690451E0
2.873144971E1;-2.288172245E0;-6.438357353E0;9.304518104E-1
2.874976131E1;-1.649278760E0;-2.989869118E0;-9.578210115E-2
2.876807449E1;-1.149910569E0;-7.990074158E-2;6.760185957E-2
2.878638248E1;-7.890236378E-1;2.083247185E0;6.412347555E-1
2.880468687E1;-5.139598846E-1;3.284930229E0;1.117229939E0
2.882300329E1;-3.033115864E-1;3.284173965E0;1.341647148E0
2.884131354E1;1.323141098E0;2.685826302E0;1.516083717E0
2.885962392E1;4.301872253E0;1.959329605E0;2.623306751E0
2.887793496E1;7.455725670E0;2.253208160E0;5.283713341E-1
2.889624522E1;7.196347713E0;3.241692066E0;-1.721881390E0
2.891455578E1;4.793362617E0;3.771670818E0;-5.552288055E0
2.893286755E1;4.172548771E0;3.291255474E0;-7.187171936E0
2.895117689E1;4.411722660E0;2.097438812E0;-6.123512268E0
2.896948733E1;3.080788136E0;4.469213486E-1;-3.471085072E0
2.898779776E1;2.382371187E0;-1.111212730E0;-1.846212864E0
2.900610832E1;4.025239468E0;-3.601531982E-1;-1.419816732E0
2.902441894E1;6.303789616E0;1.074672699E0;-1.122519851E0
2.904272901E1;8.045598030E0;9.496145248E-1;-3.186128139E-1
2.906104012E1;8.073311806E0;-1.366485596E0;-3.327427864E0
2.907935019E1;7.748752117E0;-2.903508186E0;-3.185234547E0
2.909766093E1;9.327474594E0;-2.348140717E0;1.416049004E-1
2.911597124E1;1.009396172E1;-3.191624641E0;1.997142315E0
2.913428186E1;7.983465195E0;-2.497445107E0;-8.143448830E-1
2.915259242E1;4.779865265E0;-1.440111160E0;-7.121644974E0
2.917090273E1;2.319664001E0;-6.132612228E-1;-6.070061684E0
2.918921317E1;-2.949694395E-1;-1.857152939E0;-4.816366196E0
2.920752598E1;-7.804760933E-1;-6.591753006E0;-3.421541929E0
2.922583148E1;1.278965473E-1;-9.528486252E0;8.157182336E-1
2.924413886E1;-2.191789150E0;-1.335094452E1;3.865544081E0
2.926245546E1;-5.022054672E0;-1.794942093E1;4.661590576E0
2.928076596E1;-6.641371727E0;-1.407815552E1;3.761880398E0
2.929907609E1;-3.572842836E0;-3.854922295E0;-4.624241352E0
2.931738274E1;-3.006421328E0;2.041323662E0;-2.871456385E0
2.933569739E1;-2.061203718E0;5.019813538E0;-5.251523852E-2
2.935400782E1;-6.653070450E-1;6.694523811E0;1.778458118E0
2.937231734E1;-1.926856041E-1;7.349915981E0;2.160386801E0
2.939062888E1;-1.223979473E0;7.399701118E0;1.173969984E0
2.940893937E1;-3.870239735E0;7.176936150E0;8.464703560E-1
2.942724975E1;-5.947071552E0;7.348262310E0;1.625775695E0
2.944555561E1;-6.307071686E0;6.560767174E0;3.656498909E0
2.946387086E1;-5.997498035E0;5.070403099E0;4.959920883E0
2.948216598E1;-6.387371540E0;4.268170834E0;4.589386463E0
2.950049198E1;-7.179399490E0;3.771256685E0;3.554056883E0
2.951880229E1;-7.633949280E0;3.566335201E0;2.555309296E0
2.953711279E1;-7.326356411E0;2.983944893E0;1.737220049E0
2.955542341E1;-8.132173538E0;-1.132048607E0;-1.205210018E1
2.957373494E1;1.069996834E1;-9.121468544E0;-1.284193707E1
2.959204422E1;2.358550262E1;-1.319659042E1;2.666269779E0
2.961035514E1;1.976295853E1;-8.958614349E0;-2.283453941E0
2.962866564E1;8.984867096E0;2.178148746E0;-8.440603256E0
2.964697589E1;7.131195068E-2;6.929234028E0;-3.073123217E0
2.966528657E1;-3.849493742E0;6.929363251E0;5.685152531E0
2.968359683E1;-3.753528118E0;2.703510761E0;9.483353615E0
2.970190854E1;-2.606339455E-1;-6.943670273E0;9.224417686E0
2.972020573E1;-8.274354935E-1;-1.056319046E1;3.878615856E0
2.973853106E1;-1.904053688E0;-5.364233017E0;-1.495979214E1
2.975683912E1;-4.847719669E0;3.809146881E-1;-5.153247833E0
2.977514931E1;-8.563983917E0;-2.395025253E0;2.317088842E0
2.979345993E1;-8.790966034E0;-6.074362755E0;1.976607084E0
2.981177049E1;-8.081497192E0;-7.333849907E0;7.205064297E-1
2.983008111E1;-6.145406723E0;-4.615434647E0;5.776575804E-1
2.984839154E1;-3.847787142E0;-1.945972443E0;4.561628103E-1
2.986670210E1;-2.138621807E0;-3.991813660E-1;3.395915031E-1
2.988499935E1;-1.208106756E0;8.768215179E-1;6.244229078E-1
2.990331943E1;-6.302666664E-1;1.966159344E0;1.129413843E0
2.992163646E1;-2.703478336E-1;2.748040199E0;1.690795898E0
2.993994396E1;3.287026882E-1;2.960990429E0;2.186128616E0
2.995825471E1;1.948562145E0;2.005433083E0;2.401186466E0
2.997656496E1;3.836427689E0;4.783067703E-1;1.918834805E0
2.999487552E1;4.744136810E0;2.825384140E-1;9.032868147E-1
3.001318491E1;2.441717863E0;1.926198959E0;-2.243630409E0
3.003149645E1;2.628592968E0;2.911040783E0;-3.464529037E0
3.004980768E1;3.344864130E0;3.958503723E0;-3.620865345E0
3.006811366E1;2.490131378E0;4.676033974E0;-3.217236042E0
3.008642348E1;1.757496357E0;3.992909431E0;-2.269264221E0
3.010473868E1;2.069825411E0;1.874746323E0;-1.902655959E0
3.012303868E1;2.754791021E0;-1.290168762E-1;-2.340234756E0
3.014135833E1;4.627311707E0;-9.964160919E-1;-3.562540054E0
3.015967035E1;6.749765873E0;-1.239584923E0;-5.782041073E0
3.017798067E1;7.425628662E0;-1.801814079E0;-4.840382576E0
3.019629123E1;7.123035908E0;-1.690981865E0;-1.146719694E0
3.021460172E1;6.780428886E0;-1.067436218E0;1.189621687E0
3.023290044E1;8.613465309E0;-2.250191689E0;-1.468499660E0
3.025122290E1;1.090012360E1;-2.148819923E0;-2.427413464E0
3.026952210E1;9.111801147E0;-1.082323074E0;-2.694823503E0
3.028783284E1;5.339950085E0;2.197847366E-1;-3.482388973E0
3.030614377E1;2.769968510E0;-1.675495148E0;-5.809805870E0
3.032445311E1;7.495241165E-1;-6.239156723E0;-4.607492924E0
3.034277636E1;9.957873821E-1;-8.647666931E0;-2.456737757E-1
3.036108289E1;-4.656493664E-1;-1.224541569E1;2.229167461E0
3.037939589E1;-3.908828020E0;-1.505079079E1;2.986886978E0
3.039769308E1;-8.140071869E0;-1.351443100E1;2.795475721E0
3.041600577E1;-8.350607872E0;-5.555635452E0;-4.336608887E0
3.043431572E1;-8.069739342E0;-1.365803719E0;-2.326804876E0
3.045264093E1;-6.986027718E0;1.274803162E0;1.307810545E0
3.047095014E1;-5.006013393E0;3.274888515E0;2.054498434E0
3.048926204E1;-2.239094973E0;4.888369083E0;1.666866660E0
3.050757449E1;-1.087694168E-1;5.484272957E0;1.783272862E0
3.052587565E1;9.388766289E-1;5.339800358E0;2.750092030E0
3.054419079E1;3.525781631E-2;4.373593330E0;2.917913437E0
3.056248950E1;-3.721225500E0;3.513721943E0;2.579607010E0
3.058081178E1;-5.834623814E0;3.925068140E0;3.293087959E0
3.059912228E1;-6.003964424E0;3.971136093E0;4.249825954E0
3.061743284E1;-6.488106251E0;3.721429110E0;3.490199089E0
3.063574345E1;-7.842502594E0;3.684556007E0;2.908214569E0
3.065404791E1;-8.402196884E0;4.347800732E0;1.412372708E0
3.067236457E1;-8.144565582E0;4.063619614E0;-3.681586742E0
3.069067482E1;-4.658975601E-1;9.997835159E-1;-1.504859543E1
3.070898508E1;1.515674019E1;-2.905471325E0;-2.754300594E0
3.072728812E1;1.947200012E1;-9.973615646E0;-2.607234716E-1
3.074560650E1;1.303415775E1;-8.609697342E0;-7.598559380E0
3.076391657E1;5.183941841E0;1.734035015E0;-4.333928108E0
3.078222621E1;4.009184837E-1;3.591518402E0;2.448066950E0
3.080053493E1;-6.115087986E0;-3.399925232E0;6.449963570E0
3.081884824E1;-7.258651257E0;-6.396583557E0;3.297827244E0
3.083715904E1;-7.018194199E0;-5.535250664E0;-4.859044075E0
3.085546942E1;-5.612081051E0;-3.586406708E0;-1.657863021E0
3.087378010E1;-5.589275360E0;-3.637099266E0;1.907507420E0
3.089209047E1;-6.653839588E0;-5.344863892E0;2.613444328E0
3.091040103E1;-6.985056400E0;-5.261457443E0;2.362332582E0
3.092871134E1;-6.320764542E0;-3.666670799E0;1.936786413E0
3.094702190E1;-5.201663971E0;-2.052968025E0;1.293370605E0
3.096533270E1;-3.514145374E0;-1.375660896E0;5.783072710E-1
3.098363050E1;-1.778645277E0;-8.639364243E-1;2.227044106E-1
3.100194344E1;-4.245862961E-1;-1.824016571E-1;4.398918152E-1
3.102025254E1;6.312837601E-1;6.255187988E-1;1.116605759E0
3.103856401E1;1.553847075E0;1.255793571E0;1.414180398E0
3.105687463E1;2.396589994E0;2.045074463E0;1.364182234E0
3.107518573E1;3.737699509E0;2.921683311E0;9.868426323E-1
3.109349434E1;4.929164886E0;3.631212234E0;3.813649416E-1
3.111180514E1;5.593921185E0;4.122881889E0;-1.483591795E-1
3.113012821E1;4.782447815E0;4.092122555E0;-1.338963509E0
3.114843749E1;4.042008877E0;3.143541336E0;-2.770398378E0
3.116674347E1;4.373126984E0;1.944398880E0;-3.414299965E0
3.118506172E1;4.150238037E0;9.807777405E-1;-3.924954891E0
3.120336532E1;3.276221275E0;6.460924149E-1;-4.846247673E0
3.122167972E1;2.691891193E0;5.871820450E-1;-5.292915344E0
3.123998942E1;4.159097672E0;3.394756317E-1;-4.470489979E0
3.125830065E1;5.212354660E0;-1.300334930E-2;-4.094832897E0
3.127661121E1;6.095688343E0;-8.639001846E-1;-3.428280354E0
3.129491591E1;6.912947655E0;-2.060248375E0;-2.730550289E0
3.131323232E1;7.763382435E0;-2.288876534E0;-1.753129125E0
3.133154288E1;8.627021790E0;-2.774522781E0;-1.470674872E0
3.134985320E1;1.085974789E1;-3.028075218E0;-1.644518137E0
3.136816400E1;1.090565109E1;-2.050597191E0;-3.290671110E0
3.138647431E1;5.506993294E0;-3.576202393E-1;-4.410456657E0
3.140478487E1;1.357053041E0;-2.590255737E-1;-5.176474571E0
3.142309421E1;3.896350861E-1;-5.198972702E0;-3.482136250E0
3.144140605E1;5.316784382E-1;-1.016672993E1;2.386718988E-1
3.145971630E1;-1.593214989E0;-1.467708111E1;3.178221226E0
3.147802686E1;-4.598635197E0;-1.807805252E1;4.632366180E0
3.149633735E1;-7.855187416E0;-1.532829285E1;4.926860809E0
3.151464803E1;-6.482747555E0;-5.991658211E0;-2.494193316E0
3.153295829E1;-5.071002960E0;-6.557874680E-1;-3.935541630E0
3.155126762E1;-3.856311321E0;2.545595646E0;-1.702737570E0
3.156957995E1;-2.860917568E0;3.964761734E0;7.233515978E-1
3.158788996E1;-1.752645016E0;4.790767670E0;2.636782646E0
3.160620046E1;-1.687532902E0;5.348237038E0;3.552300930E0
3.162451108E1;-3.087729931E0;5.555653095E0;3.746128559E0
3.164282133E1;-5.363460064E0;5.613562584E0;3.922318935E0
3.166111944E1;-6.688726425E0;5.610627174E0;3.866142511E0
3.167944250E1;-7.037635803E0;4.537349701E0;3.782624722E0
3.169775306E1;-6.877487183E0;3.534984589E0;3.473212957E0
3.171606362E1;-8.101381302E0;3.554997921E0;3.485198975E0
3.173437680E1;-8.831382751E0;4.545235157E0;2.403523922E0
3.175268596E1;-8.399374962E0;5.370155334E0;-4.060933590E-1
3.177099420E1;-5.307809353E0;4.226739883E0;-9.730460167E0
3.178930561E1;1.043882751E1;3.041546822E0;-8.149439812E0
3.180761910E1;2.037784958E1;-3.581231594E0;3.303509235E0
3.182592654E1;1.844139290E1;-1.242478371E1;-3.549417019E0
3.184423710E1;8.319866180E0;-4.278030872E0;-6.672333241E0
3.186254784E1;2.596305847E0;2.320725918E0;1.020374417E0
3.188085614E1;-7.436404228E-1;3.108970165E0;4.110529900E0
3.189916847E1;-2.796757221E0;-4.342561722E0;3.050247431E0
3.191747933E1;-3.016376019E0;-1.125570011E1;-3.576504946E0
3.193578501E1;-5.378996849E0;-6.795635700E0;-2.592948675E0
3.195410020E1;-6.135425091E0;-1.055775642E0;-1.216603369E-1
3.197239984E1;-6.573081017E0;1.215348244E0;1.650248528E0
3.199070954E1;-7.573226452E0;-7.342362404E-1;2.357671499E0
3.200901857E1;-8.299703598E0;-4.115780830E0;2.208670139E0
3.202733236E1;-7.614166260E0;-6.771327019E0;1.958469987E0
3.204564164E1;-4.862965584E0;-6.873259544E0;1.814960003E0
3.206395330E1;-1.275490761E0;-5.861264229E0;2.188064575E0
3.208225592E1;1.298714638E0;-4.344813347E0;2.035022736E0
3.210057313E1;2.557235956E0;-1.886129379E0;1.635984421E0
3.211888357E1;3.411772251E0;4.920425415E-1;8.371011615E-1
3.213719437E1;3.507002354E0;3.314520359E0;-1.060970664E0
3.215550474E1;3.560708046E0;4.796480179E0;-2.023355484E0
3.217382647E1;4.140262604E0;5.160782337E0;-2.069234848E0
3.219213574E1;4.702457905E0;5.100656509E0;-2.185455799E0
3.221044746E1;5.166993141E0;4.475029469E0;-2.273915052E0
3.222874636E1;5.127650738E0;3.184018135E0;-1.640003085E0
3.224706852E1;3.489461422E0;1.721685410E0;-6.357313395E-1
3.226537914E1;1.927126884E0;1.057765007E0;-7.320880890E-2
3.228368945E1;9.819349051E-1;1.158154488E0;-2.375304699E-1
3.230200025E1;9.635890722E-1;1.769294739E0;-7.763391733E-1
3.232030831E1;7.737131119E-1;2.097408772E0;-6.733384132E-1
3.233862088E1;4.242596626E-1;2.228354454E0;-8.472461700E-1
3.235693168E1;2.429769039E-1;2.022125244E0;-1.974591136E0
3.237524200E1;9.248640537E-1;5.406217575E-1;-4.890830517E0
3.239355402E1;3.771386623E0;-2.724008560E0;-7.194557667E0
3.241186311E1;6.011175632E0;-4.040826797E0;-2.523797512E0
3.243017489E1;7.469559669E0;-2.601943970E0;9.512670040E-1
3.244848429E1;9.574235916E0;-2.291724205E0;1.044313431E0
3.246679472E1;1.053907204E1;1.109695435E-1;1.721674919E0
3.248510528E1;9.900234222E0;3.610734940E-1;-4.300179005E0
3.250341120E1;9.581037521E0;-8.934640884E-1;-1.092796612E1
3.252172762E1;5.758427620E0;-3.086528778E-1;-5.136769772E0
3.254003677E1;2.475519896E0;-1.170034409E0;-2.174608946E0
3.255834623E1;6.760160923E-1;-5.173486710E0;-1.482503176E0
3.257665301E1;-6.154437065E-1;-9.705998421E0;1.352315307E0
3.259496845E1;-2.127058506E0;-1.468281174E1;2.917792320E0
3.261327510E1;-5.143929005E0;-1.757944489E1;4.324308395E0
3.263158926E1;-6.822537422E0;-1.220892048E1;9.228203893E-1
3.264990018E1;-5.804725647E0;-4.156943321E0;-4.251721859E0
3.266821037E1;-6.207159042E0;4.763221741E-2;-3.590425849E-1
3.268652093E1;-4.724795818E0;2.125776291E0;8.890273571E-1
3.270482551E1;-2.966686726E0;3.358577728E0;1.293755054E0
3.272313893E1;-1.756951809E0;3.893646240E0;2.684892178E0
3.274145242E1;-6.117701530E-1;4.250406742E0;3.537560940E0
3.275976298E1;-4.557857513E-1;4.470468521E0;2.542289734E0
3.277807354E1;-2.182376146E0;4.510830402E0;2.123915195E0
3.279638409E1;-5.626551628E0;4.688436508E0;2.745882988E0
3.281469782E1;-7.054631710E0;4.480659485E0;4.349979877E0
3.283300405E1;-7.431027412E0;4.650230408E0;4.773023605E0
3.285131827E1;-7.966771126E0;5.133118629E0;3.754775047E0
3.286962632E1;-8.388456345E0;5.395109653E0;2.806216002E0
3.288793664E1;-8.734173775E0;5.504935741E0;1.164885163E0
3.290624720E1;-8.996736526E0;5.294579983E0;-5.270044804E0
3.292455775E1;-1.529884338E-2;1.451812744E0;-1.745626640E1
3.294286850E1;1.421414185E1;-3.157410622E0;-1.321350694E0
3.296117747E1;2.004336929E1;-9.085857391E0;4.917694330E-1
3.297948894E1;8.316680908E0;-1.005990791E1;-6.259497166E0
3.299779974E1;5.844014645E0;-3.052554607E0;-7.718011856E0
3.301611018E1;1.387142181E1;-1.347912788E1;1.339992404E0
3.303442086E1;4.657151222E0;-1.266229153E1;5.928722382E0
3.305273142E1;-8.068521500E0;-2.133965969E0;9.363133907E-1
3.307104081E1;-1.371235657E1;4.398643494E0;-8.370945930E0
3.308935467E1;-1.225945091E1;6.304972649E0;3.498056889E0
3.310766284E1;-9.405049324E0;5.230361938E0;3.862671614E0
3.312597365E1;-8.942246437E0;1.827595234E0;2.167831659E0
3.314428390E1;-8.754487038E0;-3.360899448E0;2.318022966E0
3.316259550E1;-8.403244972E0;-9.295502663E0;2.837786198E0
3.318089336E1;-5.729338646E0;-1.107363510E1;2.309601545E0
3.319921557E1;-2.683614492E0;-6.663368225E0;9.479919672E-1
3.321752125E1;-1.826808214E0;-2.979510307E0;4.313699007E-1
3.323583638E1;-1.073588133E0;-1.359635353E0;5.108977556E-1
3.325414712E1;2.968335152E-2;-1.272509575E0;9.009565115E-1
3.327245762E1;1.986342430E0;-1.772328377E0;1.712697744E0
3.329076940E1;5.041597366E0;-1.028126717E0;2.428271294E0
3.330907843E1;8.802297592E0;1.600432396E0;3.096459150E0
3.332738905E1;1.146840763E1;3.392115593E0;6.643568277E-1
3.334569497E1;1.049142647E1;4.741089821E0;-1.323734283E0
3.336400998E1;7.193358421E0;5.649452686E0;-3.752952576E0
3.338232066E1;5.441906452E0;5.702093124E0;-5.140425682E0
3.340061804E1;5.486102581E0;5.055523872E0;-4.213412762E0
3.341894160E1;4.890438080E0;3.374850273E0;-2.950676203E0
3.343725240E1;3.757771730E0;7.753295898E-1;-2.166503906E0
3.345556302E1;2.153998375E0;-1.461808205E0;-1.937656164E0
3.347386741E1;2.444030046E-1;-1.899085999E0;-1.996183157E0
3.349218383E1;1.425898075E-1;3.005371094E-1;-1.919651747E0
3.351049463E1;1.679568529E0;2.578363419E0;-2.111399889E0
3.352880494E1;2.599829197E0;3.703069210E0;-2.017635822E0
3.354711556E1;3.781855345E0;3.809662342E0;-1.539112687E0
3.356542606E1;5.640763283E0;2.713990211E0;-7.666168213E-1
3.358373637E1;7.132365704E0;3.776865005E-1;-3.583335876E-2
3.360204577E1;6.275174141E0;-1.230968475E0;-1.201266050E0
3.362035755E1;6.686913490E0;-8.002614975E-1;-2.588802338E0
3.363866829E1;8.940921783E0;-2.236924171E0;-4.337942123E0
3.365696725E1;8.775793076E0;-3.533861160E0;-3.374483109E0
3.367527940E1;4.594604969E0;-3.522161484E0;-2.230477095E0
3.369358824E1;1.704365730E0;-3.745484352E0;-2.103797197E0
3.371191022E1;7.795460224E-1;-6.345026016E0;-2.361834764E0
3.373022358E1;-4.322929382E-1;-9.212789536E0;-1.032308340E0
3.374853139E1;-1.950316906E0;-1.278776550E1;1.432491899E0
3.376684171E1;-5.228692055E0;-1.514556599E1;2.777510166E0
3.378513835E1;-6.749996662E0;-1.069878101E1;-2.168028831E0
3.380345159E1;-6.233718872E0;-4.780333519E0;-3.380821705E0
3.382176227E1;-6.216685295E0;-8.439474106E-1;-2.517752051E-1
3.384007533E1;-5.353918076E0;2.112427235E0;1.551014185E0
3.385838400E1;-3.387418509E0;3.936205387E0;1.297492981E0
3.387670481E1;-1.074387789E0;5.034585476E0;4.597728550E-1
3.389501537E1;4.901270866E-1;5.378725052E0;1.197673321E0
3.391332226E1;1.168105602E0;5.166666985E0;1.975805759E0
3.393163770E1;-1.427068710E0;4.471089363E0;1.804540634E0
3.394994704E1;-5.526191711E0;4.273101330E0;1.986969709E0
3.396825760E1;-5.817811489E0;4.371376038E0;3.084432364E0
3.398656334E1;-5.614119053E0;4.027163029E0;3.487983227E0
3.400487866E1;-6.258316994E0;3.383353710E0;3.381012440E0
3.402318903E1;-7.255244255E0;3.154434681E0;2.603744268E0
3.404149855E1;-7.817122459E0;3.486691952E0;2.193023443E0
3.405980996E1;-7.376332283E0;3.815603733E0;-3.096647263E-1
3.407812064E1;-7.471771240E0;7.948522568E-1;-1.440214539E1
3.409643120E1;9.930696487E0;-3.548951149E0;-1.435416317E1
3.411473578E1;1.923974228E1;-6.560659409E0;2.833612442E0
3.413305244E1;1.735049248E1;-7.036938667E0;-1.929386258E0
3.415136275E1;9.164445877E0;2.394624710E0;-7.193560123E0
3.416967349E1;2.430876732E0;6.138154507E0;1.746894598E0
3.418798405E1;-2.451932192E0;6.841145992E0;5.131244659E0
3.420629461E1;-5.955894947E0;4.700931549E0;3.220858335E0
3.422459351E1;-5.841673374E0;-6.453207970E0;2.204327106E0
3.424290309E1;-1.501842260E0;-1.859330750E1;4.030037880E0
3.426122634E1;9.427151680E-1;-1.535816383E1;-2.025195360E-1
3.427953659E1;-3.794336319E-1;-5.728748322E0;-3.279255867E0
3.429784978E1;-4.096163273E0;-1.715376854E0;5.285673141E-1
3.431615771E1;-6.186038017E0;8.249092102E-2;1.402865410E0
3.433446833E1;-6.888499737E0;8.653860092E-1;1.806916714E0
3.435277858E1;-5.877963543E0;4.453916550E-1;1.948217630E0
3.437108963E1;-3.757706404E0;-4.821233749E-1;5.993989706E-1
3.438939970E1;-2.390654564E0;-8.564481735E-1;4.521195889E-1
3.440771001E1;-2.194729328E0;-3.678531647E-1;9.466176033E-1
3.442602063E1;-2.644148827E0;6.349525452E-1;1.186921597E0
3.444433113E1;-2.938531876E0;1.323613167E0;9.421371222E-1
3.446264187E1;-2.888035059E0;1.760011673E0;4.910552502E-1
3.448093759E1;-2.261327744E0;2.014503479E0;3.052282333E-1
3.449926280E1;-1.287410975E0;1.723705292E0;3.199232817E-1
3.451757336E1;-7.301974297E-2;1.327246666E0;4.129415751E-1
3.453588416E1;1.168582678E0;1.145449638E0;5.449280739E-1
3.455419472E1;2.630513191E0;1.259666443E0;4.090839624E-1
3.457250625E1;3.875279903E0;1.591692924E0;1.297600031E0
3.459081535E1;6.149371147E0;1.512647629E0;-3.161556721E-1
3.460912621E1;7.768572330E0;1.265665054E0;-3.160838842E0
3.462742602E1;1.005941677E1;2.079008579E0;-1.244603539E1
3.464573671E1;1.074958515E1;2.720930099E0;-1.074131584E1
3.466404647E1;1.010841751E1;2.853064537E0;-3.515146017E0
3.468235630E1;1.014802933E1;2.418609619E0;-8.048374653E-1
3.470066093E1;1.010706711E1;1.354766846E0;1.056060791E0
3.471897869E1;9.002974510E0;6.107149124E-1;-9.822106361E-2
3.473728894E1;9.562313080E0;-1.977539062E0;-2.312670231E0
3.475559975E1;9.035068512E0;-3.805072784E0;-3.174959660E0
3.477392123E1;3.541021347E0;-4.488082886E0;-4.731181622E0
3.479223148E1;6.660867333E-1;-5.383593559E0;-5.894328117E0
3.481054204E1;1.810457706E-1;-8.991384506E0;-5.602549553E0
3.482885229E1;-7.112532854E-1;-1.369248009E1;-5.003327131E-1
3.484716285E1;-3.544271469E0;-1.849130058E1;2.505630255E0
3.486547347E1;-1.009300804E1;-2.162064552E1;4.525616646E0
3.488377792E1;-1.066126919E1;-1.307541084E1;-1.791290641E0
3.490209459E1;-6.988407135E0;-3.938751221E0;-1.466696620E0
3.492040508E1;-5.270614624E0;2.759828568E-1;1.351109743E0
3.493871540E1;-5.015033722E0;2.826626778E0;4.861019611E0
3.495702589E1;-4.146823406E0;4.642203808E0;6.123896599E0
3.497533645E1;-9.302053452E-1;6.143930435E0;2.464997768E0
3.499364713E1;2.491646767E0;7.580751419E0;4.494758844E-1
3.501195909E1;4.055638313E0;7.725701332E0;1.929018855E0
3.503026910E1;2.218708992E0;6.887932777E0;3.057053089E0
3.504857874E1;-2.411133528E0;5.321248531E0;2.642045259E0
3.506688936E1;-5.601244450E0;4.551900864E0;1.888128161E0
3.508519968E1;-6.531061172E0;4.248995781E0;2.400565624E0
3.510351048E1;-6.519838333E0;3.827889919E0;3.446179390E0
3.512182104E1;-6.928474426E0;3.718325615E0;3.781702518E0
3.514013233E1;-7.185483456E0;4.341962337E0;3.388091564E0
3.515843922E1;-7.044629097E0;4.947109222E0;2.125469923E0
3.517675271E1;-6.651535511E0;4.722315311E0;-9.980221987E-1
3.519506333E1;-4.251613617E0;1.520285606E0;-1.475088978E1
3.521337108E1;1.522379875E1;-4.308134079E0;-1.517794418E1
3.523168420E1;2.594727707E1;-1.349725914E1;-3.099337578E0
3.524999494E1;1.568654633E1;-1.090957069E1;-7.316982269E0
3.526830526E1;2.857347012E0;-3.065376282E-1;-5.328351974E0
3.528661575E1;-8.307127953E-1;4.307462692E0;2.505822182E-1
3.530492637E1;5.341620445E-1;8.555774689E-1;4.595713139E0
3.532323595E1;-2.094631195E-1;-1.032069683E1;5.048137188E0
3.534154742E1;-6.795933247E0;-1.296301842E1;4.502652168E0
3.535986091E1;-9.507688522E0;-5.114678383E0;-5.832095623E0
3.537816836E1;-6.433897972E0;4.084262848E-1;3.078737497E0
3.539647428E1;-7.030360222E0;1.197621346E0;5.741573811E0
3.541478947E1;-7.523817539E0;-1.388655663E0;4.151189327E0
3.543310003E1;-7.776863098E0;-2.710843086E0;3.632225990E0
3.545140937E1;-6.757193565E0;-2.169882774E0;3.328608751E0
3.546972108E1;-5.323369980E0;-2.151918411E0;1.807986379E0
3.548803170E1;-3.792531013E0;-2.526126862E0;4.916853905E-1
3.550634226E1;-1.896945477E0;-2.507937431E0;1.616568565E-1
3.552464678E1;-4.057455063E-2;-1.427912712E0;7.456047535E-1
3.554296063E1;1.131839752E0;-1.566734314E-1;1.451566100E0
3.556127388E1;1.588449955E0;1.026353836E0;1.544428825E0
3.557958425E1;1.682391882E0;1.870659828E0;1.194119930E0
3.559789481E1;2.421363354E0;1.915959358E0;8.662095070E-1
3.561620530E1;4.561634064E0;1.068140984E0;7.680069208E-1
3.563451592E1;5.082270622E0;1.495181561E0;-1.367566347E0
3.565282770E1;3.993847370E0;1.975788116E0;-4.550801277E0
3.567112685E1;4.057693958E0;2.187040329E0;-6.666153431E0
3.568943704E1;5.656191826E0;2.885398865E0;-4.659317017E0
3.570774778E1;4.881497383E0;2.682504654E0;-2.737168550E0
3.572605815E1;3.616469860E0;1.791921616E0;-1.655732751E0
3.574436822E1;3.364842653E0;1.479967117E0;-1.406946182E0
3.576267854E1;4.504048824E0;2.116437435E0;-1.945737720E0
3.578098885E1;5.790736198E0;1.688391685E0;-2.601482391E0
3.579930051E1;7.434625149E0;-2.908020020E-1;-5.170589447E0
3.581761009E1;7.618584633E0;-1.441156387E0;-7.004645824E0
3.583592034E1;9.470597267E0;-9.815273285E-1;-1.882920861E0
3.585423139E1;9.618408203E0;1.951808929E-1;2.462110996E0
3.587255293E1;1.028521061E1;-1.233520508E-1;2.730746508E0
3.589086355E1;1.188429165E1;-1.361980438E0;-1.187000275E0
3.590917399E1;8.156651497E0;-1.329463959E0;-4.831562996E0
3.592748454E1;4.513256073E0;-1.452949524E0;-3.806551695E0
3.594579528E1;3.201445580E0;-3.035950661E0;-2.371078968E0
3.596409937E1;1.442815065E0;-6.916209221E0;-3.938879728E0
3.598241622E1;4.648082256E-1;-1.151124859E1;-1.128854752E-1
3.600071512E1;-2.111680508E0;-1.767384529E1;2.530439854E0
3.601903691E1;-7.380031586E0;-2.259442139E1;3.691111803E0
3.603734276E1;-9.375755310E0;-1.473467731E1;-6.631892323E-1
3.605565827E1;-8.418985367E0;-5.391454697E0;-3.364228249E0
3.607396882E1;-7.648097038E0;-5.134201050E-2;6.089414656E-2
3.609227822E1;-5.667243958E0;3.647837639E0;1.926062703E0
3.611059025E1;-2.576264858E0;6.045942783E0;9.879983068E-1
3.612890056E1;2.498645782E-1;7.683352470E0;1.259926796E0
3.614721087E1;2.081104279E0;8.032537460E0;2.952317715E0
3.616551020E1;2.068175793E0;7.497859478E0;3.142820120E0
3.618383187E1;-1.303779125E0;6.422603607E0;2.190929890E0
3.620214297E1;-6.024340153E0;5.783732414E0;2.409311056E0
3.622045310E1;-7.617625237E0;5.442238808E0;3.991425514E0
3.623876384E1;-6.155889988E0;4.598203659E0;5.178017139E0
3.625707416E1;-6.281432629E0;4.160689354E0;5.503206730E0
3.627538472E1;-7.861484051E0;4.215958595E0;4.580631733E0
3.629369650E1;-8.304340363E0;4.639265060E0;3.004195213E0
3.631200589E1;-7.149044037E0;3.823546886E0;-1.206523180E0
3.633031639E1;-1.110711336E0;-1.961594582E0;-2.465568352E1
3.634862695E1;1.426775742E1;-6.976404190E0;-4.796953201E0
3.636693751E1;2.270462608E1;-1.143085384E1;-1.132223845E0
3.638525075E1;2.176754761E1;-2.182119370E0;-8.594610214E0
3.640355838E1;1.135783291E1;4.768172264E0;1.697595358E0
3.642187028E1;1.267632580E1;-6.884749413E0;1.236172104E1
3.644017760E1;1.246023178E0;-1.349354362E1;8.528917313E0
3.645849011E1;-4.609809875E0;-7.949663162E0;4.757407188E0
3.647680085E1;-7.246202469E0;-3.920486450E0;4.340681553E0
3.649511141E1;-1.197802639E1;-4.808573723E0;4.697774410E0
3.651341764E1;-1.535265541E1;-4.810785294E0;3.969979763E0
3.653172136E1;-1.435392761E1;-3.732104301E0;4.119951725E-1
3.655004284E1;-1.233429909E1;-4.777398109E0;-1.509229302E0
3.656835340E1;-8.190618515E0;-3.257517815E0;-3.207473278E0
3.658666396E1;-6.776035309E0;-6.341190338E-1;-3.063671827E0
3.660496872E1;-6.110507965E0;1.135152817E0;-2.868169069E0
3.662328135E1;-5.741078377E0;1.805250168E0;-1.972208261E0
3.664159563E1;-5.201142311E0;1.581982136E0;-7.303520441E-1
3.665990600E1;-4.128569603E0;1.127642632E0;4.588875771E-1
3.667821674E1;-2.072043419E0;6.403818130E-1;8.700867891E-1
3.669652700E1;-9.748268127E-2;-4.597606659E-1;1.542092681E0
3.671483762E1;1.771029472E0;-2.090022087E0;2.336777687E0
3.673314702E1;4.138435841E0;-2.808954239E0;2.317587852E0
3.675145873E1;6.975255489E0;-1.268738747E0;3.637097597E0
3.676976935E1;9.375968933E0;1.076897621E0;1.385379314E0
3.678807979E1;9.989826202E0;1.664114475E0;-2.158097029E0
3.680638571E1;8.369383812E0;2.867282391E0;-5.841423035E0
3.682470096E1;7.092190266E0;4.266206741E0;-1.068799019E1
3.684301640E1;7.443251610E0;3.325293541E0;-8.087291718E0
3.686132086E1;8.413639069E0;2.032269955E0;-4.627285004E0
3.687963264E1;8.872380257E0;1.370368958E0;-2.214947224E0
3.689792940E1;9.674449921E0;-5.880451202E-2;-3.530035019E-1
3.691624667E1;1.002378082E1;-9.559907913E-1;5.321621895E-2
3.693455229E1;9.147870064E0;-3.518476486E-1;-3.671817780E-1
3.695287456E1;7.120975971E0;-1.224866867E0;3.304522038E-1
3.697118543E1;5.873059273E0;-4.375329018E0;-2.743393898E0
3.698949580E1;3.697536945E0;-6.278604507E0;-6.864824772E0
3.700780654E1;1.126064301E0;-5.485069275E0;-5.599688053E0
3.702611692E1;-1.981028557E0;-4.502331734E0;-6.343708038E0
3.704442741E1;-3.777550220E0;-5.857085228E0;-5.007992744E0
3.706273919E1;-2.066792011E0;-8.166604042E0;-4.140627384E-1
3.708104719E1;-4.975807667E-1;-1.072415161E1;2.630049706E0
3.709935878E1;-4.751155376E0;-1.567001915E1;3.712517977E0
3.711766971E1;-7.712457657E0;-1.622561264E1;2.093130827E0
3.713598014E1;-5.791590691E0;-7.284446716E0;-4.553908825E0
3.715429082E1;-5.803730011E0;-1.341967583E0;-6.673646569E-1
3.717260138E1;-5.157513142E0;2.598187923E0;1.468329072E0
3.719091273E1;-3.097639561E0;5.144910336E0;1.364595652E0
3.720922298E1;-1.075124741E0;6.816115379E0;4.991133809E-1
3.722753537E1;8.945717812E-1;7.718987465E0;1.115734458E0
3.724583873E1;2.120458603E0;7.862289429E0;1.770299673E0
3.726415411E1;1.112091064E0;7.076179028E0;1.768160224E0
3.728245789E1;-4.366349697E0;5.418252945E0;1.876437902E0
3.730076058E1;-5.479155540E0;4.294676781E0;3.900234222E0
3.731907571E1;-5.022505760E0;3.962652683E0;4.400456429E0
3.733738487E1;-5.964373112E0;3.916434050E0;3.346713066E0
3.735569585E1;-6.736282349E0;4.348903179E0;2.323412895E0
3.737400684E1;-6.734424591E0;5.145085335E0;2.449073553E0
3.739231629E1;-6.199472427E0;5.751742363E0;1.944440842E0
3.741063839E1;-5.634119511E0;4.808880329E0;-1.538181782E0
3.742894858E1;-1.039855957E0;-1.292067528E0;-1.953337097E1
3.744725456E1;1.877193832E1;-7.917495728E0;-8.793287277E0
3.746557006E1;2.384168243E1;-1.436550522E1;-4.465654850E0
3.748388031E1;1.465486145E1;-6.780831337E0;-9.400856018E0
3.750218990E1;2.729588032E0;4.154683113E0;-7.967843056E0
3.752049972E1;-1.049851894E0;5.461047173E0;1.712830782E0
3.753881205E1;8.026885986E-2;-1.047144890E0;1.128948498E1
3.755712255E1;1.264791489E-1;-1.021704483E1;7.976249695E0
3.757543335E1;-1.331032991E0;-9.324633598E0;4.378366947E0
3.759372914E1;-3.698264599E0;-3.575557709E0;1.386874318E0
3.761205422E1;-6.000922203E0;-2.786893845E-1;6.708911061E-1
3.763036478E1;-8.866311073E0;-1.938703537E0;9.977756739E-1
3.764867534E1;-9.558328629E0;-4.180153847E0;1.051295519E0
3.766698589E1;-9.236602783E0;-6.522734642E0;1.259922147E0
3.768529645E1;-7.338019371E0;-7.271096230E0;9.900201559E-1
3.770360823E1;-3.834582329E0;-5.281000137E0;-3.853734732E-1
3.772191775E1;-2.401100397E0;-2.583809853E0;-9.045133591E-1
3.774022880E1;-2.900867462E0;-4.201316833E-2;-8.045812845E-1
3.775853868E1;-3.234464645E0;1.822651863E0;-5.718460083E-1
3.777684918E1;-3.142097712E0;2.836326122E0;-4.450106621E-1
3.779515962E1;-2.637705326E0;3.246723175E0;-4.678369761E-1
3.781347042E1;-2.268243074E0;2.462508202E0;-3.836219311E-1
3.783178189E1;-1.196695566E0;8.257780075E-1;-1.858932972E-1
3.785009245E1;9.523758888E-1;3.948535919E-1;2.241237164E-1
3.786840203E1;2.782577276E0;1.592173576E0;8.061838150E-1
3.788670093E1;3.870512724E0;2.917573929E0;8.450214863E-1
3.790502290E1;4.523606300E0;3.556817055E0;3.905487061E-1
3.792332217E1;5.127490520E0;3.228108406E0;3.525123596E-1
