"Time (s)";"Linear Acceleration x (m/s^2)";"Linear Acceleration y (m/s^2)";"Linear Acceleration z (m/s^2)"
1.423460930E-1;-1.190890074E-1;8.411633968E-2;-1.190757751E-1
1.600717410E-1;-1.638148725E-1;1.724132299E-1;-5.069637299E-2
1.777963500E-1;-1.936522722E-1;9.515154362E-2;2.076663971E-1
1.955251710E-1;2.511171699E-1;5.691874027E-2;-2.140274048E-1
2.132423950E-1;2.633175850E-1;-2.003988028E-1;-7.140398026E-1
2.309782340E-1;2.249886990E-1;-5.971884727E-2;-1.139354706E-2
2.487049200E-1;8.112856746E-2;2.528846264E-2;3.749513626E-1
2.664284910E-1;-2.773621678E-2;-5.724012852E-2;1.691522598E-1
2.841556640E-1;-1.493181288E-2;-8.284282684E-2;2.524328232E-1
3.018733150E-1;4.260824621E-2;-6.365597248E-2;1.424989700E-1
3.196043940E-1;1.959171891E-1;-5.623221397E-2;-4.748020172E-1
3.373347410E-1;2.014794350E-1;-2.052539587E-1;-5.631618500E-1
3.550530640E-1;1.765570343E-1;-1.271561384E-1;-2.102928162E-1
3.727884160E-1;7.681624591E-2;2.749204636E-3;1.526641846E-2
3.905109500E-1;-2.231329679E-2;-2.899253368E-2;-2.779006958E-2
4.082392820E-1;-2.223807573E-2;-6.933605671E-2;7.401371002E-2
4.259652350E-1;-7.556080818E-3;-4.783487320E-2;1.971988678E-1
4.436946660E-1;2.808800340E-2;3.025400639E-2;-4.982376099E-2
4.614140260E-1;6.275154650E-2;1.834537983E-1;-2.401227951E-1
4.791437010E-1;-6.245613098E-2;3.875650167E-1;-7.587432861E-2
4.968700810E-1;-1.634788811E-1;3.419829607E-1;-2.378940582E-2
5.145960940E-1;-1.011256427E-1;3.171017170E-1;1.798629761E-2
5.323193600E-1;-1.080204546E-1;2.014669180E-1;6.010437012E-2
5.500429930E-1;2.166441679E-1;1.191399097E-1;-1.857852936E-2
5.677795050E-1;4.610129297E-1;-1.240992546E-1;3.765954971E-1
5.855009400E-1;6.686631441E-1;3.806030750E-2;3.943614960E-1
6.032270140E-1;2.651478946E-1;-2.141276002E-1;1.250619888E-1
6.209533940E-1;2.264938504E-1;-5.083775520E-2;-1.131992340E-1
6.386803220E-1;1.277313679E-1;1.606965065E-2;2.138786316E-1
6.564028560E-1;-3.987550735E-2;-5.907416344E-2;3.327178955E-1
6.741329590E-1;-3.375262022E-3;-5.646288395E-2;3.218240738E-1
6.918568970E-1;1.238999665E-1;-1.416563988E-2;5.335807800E-2
7.095839480E-1;2.677794993E-1;-2.479588985E-2;-2.072458267E-1
7.273102660E-1;4.189783335E-1;-5.959618092E-2;-4.218673706E-1
7.450329230E-1;5.708044767E-1;3.615677357E-2;-7.114353180E-1
7.627625980E-1;5.850585103E-1;1.114671230E-1;-9.030809402E-1
7.804884890E-1;3.629418612E-1;1.102784276E-1;-1.131914139E0
7.982150510E-1;1.141471863E-1;9.153509140E-2;-1.085589409E0
8.159411260E-1;3.649421334E-1;3.774943352E-1;-8.379335403E-1
8.336676270E-1;2.836446762E-1;4.193549156E-1;-6.073017120E-1
8.513874140E-1;4.281470776E-1;4.775009155E-1;-5.957202911E-1
8.691009770E-1;3.238683343E-1;8.100621104E-1;1.902866364E-1
8.868487190E-1;-1.666069031E-3;5.353019238E-1;-1.667575836E-1
9.045719850E-1;-2.800051570E-1;1.871696115E-1;-5.133152008E-1
9.222967160E-1;3.046763837E-1;2.778012753E-1;6.542720795E-1
9.400202880E-1;1.051305056E0;5.289299488E-1;-1.016178131E0
9.577370240E-1;5.838155150E-1;2.669911385E-1;-1.371441841E0
9.754811040E-1;5.475373864E-1;2.464652359E-1;-6.145744324E-1
9.931976560E-1;1.984322429E0;1.697037369E-1;-1.770944595E-1
1.010913965E0;6.113600135E-1;-1.975210160E-1;2.835941315E-2
1.028654688E0;-6.893998384E-1;3.008448482E-1;-2.090120316E-1
1.046382044E0;-2.937426567E-1;-1.215438470E-1;-8.586597443E-2
1.064106958E0;9.356472492E-1;-3.910779357E-1;-4.697408676E-1
1.081832055E0;7.141181827E-1;-2.507575452E-1;-4.681949615E-1
1.099559473E0;-3.319280744E-1;5.885115266E-2;1.401507378E0
1.117285852E0;-2.431893349E-2;3.804450631E-1;1.771036148E0
1.135014368E0;2.761419117E-1;-4.954786599E-2;6.629190445E-1
1.152738001E0;3.300909698E-1;-2.525110170E-2;-3.143100739E-1
1.170463465E0;4.317909479E-1;3.044892848E-2;-8.384952545E-1
1.188190149E0;8.733327389E-1;1.036581516E0;-6.984376907E-1
1.205915979E0;5.072761178E-1;5.725110769E-1;2.490863800E-1
1.223641382E0;5.250251293E-2;1.526969373E-1;8.246202469E-1
1.241365503E0;1.185275316E-1;2.738364637E-1;-1.012039185E-1
1.259093774E0;5.211178064E-1;7.887902260E-1;-2.265986919E0
1.276819238E0;9.492028952E-1;9.320646524E-1;-2.210283279E0
1.294542261E0;1.783729076E0;1.488173604E0;-1.199448586E0
1.312273218E0;1.889158010E0;2.514330387E0;-8.216524124E-1
1.329999719E0;1.943005085E0;2.885226727E0;1.352500916E-1
1.347715540E0;2.837770700E0;2.841785908E0;9.312620163E-1
1.365451624E0;2.993371487E0;1.007999182E0;-4.976100922E-1
1.383177942E0;2.061349154E0;-2.827525735E-1;-9.244842529E-1
1.400904016E0;-1.155853271E-3;-2.335742712E-1;6.179361343E-1
1.418629785E0;-1.040868521E0;6.687637568E-1;9.963893890E-1
1.436347437E0;-3.281953335E-1;7.818267345E-1;1.081816673E0
1.454082727E0;1.258525848E-1;-2.982645035E-1;1.278911591E0
1.471807519E0;-8.180027008E-1;-9.201173782E-1;1.350471497E0
1.489535485E0;-1.537316799E0;-2.973637581E-1;1.709092140E0
1.507242027E0;-1.321017861E0;5.869487524E-1;5.240540504E0
1.524982568E0;-3.485399485E-2;1.235327601E0;2.290360451E0
1.542715783E0;1.839224994E-1;1.624792695E0;-7.804231644E-1
1.560438928E0;-8.556512594E-1;5.154750347E-1;-1.005353928E-1
1.578163050E0;-1.318072200E0;-2.410284281E0;1.948497772E0
1.595891626E0;-2.182451725E0;-1.701024532E0;2.688686371E0
1.613610559E0;-2.236390710E-1;9.660091400E-1;2.098483086E0
1.631342127E0;1.235281229E-1;7.725948095E-1;1.083620071E0
1.649065942E0;-2.280449867E0;-2.043587208E0;1.009564400E0
1.666782984E0;-1.793390155E0;-2.385763645E0;4.467144012E-1
1.684522424E0;-3.252909184E-1;1.434116364E0;1.352574348E0
1.702230432E0;9.653410912E-1;2.505591393E0;1.077615738E0
1.719977625E0;1.852383018E-1;1.243369579E0;6.555290222E-1
1.737701684E0;-5.307364464E-1;-8.512079716E-3;1.447124481E-1
1.755428125E0;-5.877927542E-1;-3.443783522E-1;1.498508453E-2
1.773152796E0;7.452836633E-2;-2.316600084E-2;-3.364620209E-1
1.790875940E0;-9.849229455E-2;2.034813166E-1;-4.163122177E-1
1.808605432E0;6.450762749E-1;4.216805696E-1;-1.333785057E0
1.826330041E0;3.430843353E-1;5.572390556E-1;-6.101245880E-1
1.844052393E0;3.166351616E-1;-5.503654480E-3;5.304632187E-1
1.861783594E0;1.215571910E-1;-4.159285426E-1;-1.541309357E-1
1.879509729E0;-1.832337826E-1;-1.833437681E-1;-1.406417847E0
1.897236108E0;2.735805809E-1;-1.950563192E-1;-2.116108894E0
1.914961878E0;-1.145701706E-1;-1.237744093E-1;-1.586352348E0
1.932679650E0;-7.491002083E-1;5.821514130E-1;-8.419179916E-1
1.950414575E0;1.503038406E-2;-4.229803085E-1;-5.812644958E-1
1.968136011E0;-6.939211488E-2;-1.138591290E0;-9.081220627E-1
1.985866724E0;-9.406172037E-1;-1.329036474E0;-2.597732544E-1
2.003592920E0;-1.239657402E0;-1.234952450E0;-2.415075302E-1
2.021317529E0;-3.415603042E-1;-9.073880911E-1;-9.645290375E-1
2.039039331E0;3.214462101E-2;-4.183652401E-1;-4.002752304E-1
2.056771021E0;-8.460466564E-2;-9.698702097E-1;4.307670593E-1
2.074497522E0;1.026202440E-1;-1.454270840E0;4.869775772E-1
2.092223596E0;2.539446056E-1;-4.192531109E-1;-3.913860321E-1
2.109949731E0;5.346258879E-1;2.454785109E-1;-9.398937225E-1
2.127677026E0;6.205363274E-1;2.995038033E-1;-1.566495895E0
2.145398096E0;5.706707239E-1;1.032390594E-1;-1.549581528E0
2.163128381E0;-2.626619339E-1;-4.855293036E-1;-1.773776531E0
2.180842004E0;-3.180127144E-1;-1.091316581E0;-1.653440475E0
2.198581995E0;4.798700213E-1;6.606578827E-4;-2.010534286E0
2.216306909E0;5.310016274E-1;4.864404202E-1;-2.992622852E0
2.234026331E0;2.881736755E-1;-5.299210548E-3;-2.858752728E0
2.251759241E0;2.698731422E-1;-8.757411242E-1;-2.124759674E0
2.269480921E0;6.748747826E-2;-1.265084505E0;-1.556257248E0
2.287209985E0;-3.599929810E-2;-8.011802435E-1;-2.636334419E0
2.304937708E0;1.902868748E-1;-2.330771685E-1;-4.335209846E0
2.322658472E0;3.407826424E-1;-5.469322205E-3;-4.990212440E0
2.340385156E0;9.718132019E-2;-5.994280577E-1;-4.360959053E0
2.358115015E0;-3.075869083E-1;-1.306123376E0;-3.864470959E0
2.375842737E0;-5.752565861E-1;-2.324041367E0;-3.003067017E0
2.393570032E0;-4.548144341E-1;-2.337631941E0;-1.242219925E0
2.411286706E0;3.229851723E-1;-1.473296404E0;-1.419210434E-1
2.429015649E0;1.055953503E0;-1.123534203E0;3.878631592E-1
2.446746851E0;-9.647533894E-1;-7.792607546E-1;-3.232002258E-1
2.464473352E0;6.492567062E-2;-8.346377015E-1;-1.710198879E0
2.482198877E0;7.435302734E-1;-6.321819425E-1;-2.193960667E0
2.499924524E0;7.501840591E-2;-1.271886110E0;-1.873376369E0
2.517651636E0;4.984521866E-1;-1.825028658E0;-9.342064857E-1
2.535367395E0;3.384404182E0;4.878818989E-2;2.408051491E0
2.553104273E0;9.006486893E0;4.701783180E0;8.152801514E0
2.570829065E0;5.035899639E0;2.260133982E0;2.242415428E0
2.588556604E0;-6.093807220E-1;-1.666602135E0;1.790151596E-1
2.606282739E0;-1.352717400E0;-3.260959387E0;2.559923649E0
2.624007044E0;-4.216609001E-1;-2.950810432E0;4.443617821E0
2.641728967E0;-7.030215263E-1;-2.511363745E0;4.418340206E0
2.659461389E0;-1.037886620E0;-2.038073301E0;4.601784229E0
2.677187585E0;-1.719967842E0;-2.174243927E0;4.139175415E0
2.694914453E0;-2.403218269E0;-1.972395897E0;2.122138500E0
2.712640100E0;-2.377575874E0;-5.332379341E-1;1.778387547E0
2.730365930E0;-1.585415840E0;1.317803860E-1;2.833674908E0
2.748092249E0;-3.654913902E-1;3.292403221E-1;4.749686718E0
2.765816858E0;1.089768410E0;7.117528915E-1;5.728083134E0
2.783544702E0;1.912065983E0;8.964784145E-1;5.456157684E0
2.801265314E0;2.025822639E0;8.149871826E-1;4.268815041E0
2.818996057E0;2.239382267E0;8.997535706E-1;2.277332783E0
2.836721582E0;2.536410332E0;1.613151073E0;4.666156769E-1
2.854449548E0;3.063413620E0;2.245447636E0;-3.390026093E-2
2.872174585E0;3.628434181E0;2.858368397E0;-2.178401947E-1
2.889901819E0;4.037295341E0;2.390620232E0;3.516302109E-1
2.907627649E0;3.350769043E0;2.096123457E0;-3.710532188E-1
2.925342615E0;2.197237492E0;2.151144981E0;-1.635018349E0
2.943078882E0;1.574068546E0;1.949731112E0;-2.583389521E0
2.960805566E0;1.301454067E0;1.483238459E0;-2.607626915E0
2.978530786E0;7.512254715E-1;8.144798279E-1;-1.621640682E0
2.996260218E0;1.597738266E-1;3.316235542E-1;-9.511833191E-1
3.013981165E0;2.488975525E-1;5.349800587E-1;-7.705307007E-1
3.031714807E0;6.958065033E-1;6.341669559E-1;-7.814722061E-1
3.049433801E0;5.966024399E-1;5.937583447E-1;-6.146159172E-1
3.067162561E0;3.732242584E-1;6.030755043E-1;-1.175307274E0
3.084890100E0;-9.944248199E-2;3.183667660E-1;-1.834787130E0
3.102612329E0;-7.726383209E-1;2.547216415E-2;-1.734794140E0
3.120342310E0;-1.154449463E0;-1.482193470E-1;-7.512984276E-1
3.138063074E0;-1.910576820E0;-9.921174049E-1;4.352931976E-1
3.155795190E0;-2.365183353E0;-1.030526876E0;4.698610306E-2
3.173519861E0;-2.391692162E0;-4.401133060E-1;-8.672304153E-1
3.191242151E0;-2.482152462E0;-2.398879528E-1;-1.571807146E0
3.208970910E0;-2.729421139E0;-6.182086468E-1;-2.154681206E0
3.226686426E0;-2.431884766E0;-7.028905153E-1;-1.141597033E0
3.244413782E0;-1.746258736E0;-1.010571241E0;1.326442480E0
3.262154748E0;-7.591266632E-1;-1.291006565E0;2.895079851E0
3.279871301E0;5.129776001E-1;-1.097094178E0;2.373243809E0
3.297604456E0;1.401578903E0;-1.922702789E-2;4.042348862E-1
3.315326074E0;2.864826202E0;8.398654461E-1;-9.441571832E-1
3.333053430E0;3.525281906E0;-3.377004862E-1;-1.027100205E0
3.350783533E0;2.128225327E0;-2.323122025E0;6.942935586E-1
3.368507776E0;1.125021935E0;-3.019680977E0;8.011670113E-1
3.386236108E0;1.177861214E0;-2.086977720E0;-1.085437298E0
3.403961572E0;2.071859360E0;-1.118501544E0;-1.900467634E0
3.421677758E0;2.224471092E0;-5.491638184E-1;-1.864525557E0
3.439414209E0;1.981371880E0;-4.761219025E-3;-1.658679962E0
3.457137903E0;8.511619568E-1;-3.869222403E-1;-1.686124206E0
3.474865686E0;-1.045482635E0;-7.701069117E-1;-1.189188480E0
3.492593286E0;-2.477873802E0;-1.083118200E0;-9.760761261E-2
3.510307947E0;-2.201477051E0;-1.777714491E0;1.194582582E0
3.528042078E0;-1.629258156E0;-2.772094488E0;3.967850208E-1
3.545775720E0;-1.499730110E0;-3.229529381E0;2.689827681E-1
3.563498315E0;-1.106474876E0;-3.269070864E0;7.923508883E-1
3.581220239E0;1.008110046E-1;-3.547128201E0;1.823614836E0
3.598950769E0;1.031240463E0;-3.192065239E0;2.433163881E0
3.616672938E0;6.762304306E-1;-2.818875074E0;2.452491283E0
3.634400171E0;5.076580048E-1;-2.296100616E0;2.375539303E0
3.652129419E0;1.273697853E0;-1.446972609E0;1.825758934E0
3.669843957E0;2.658222198E0;1.054804325E-1;3.347402096E0
3.687586084E0;3.972563744E0;1.544792414E0;5.697819710E0
3.705308374E0;3.300663948E0;1.940767527E0;4.859679699E0
3.723028833E0;1.435605049E0;1.814419508E0;1.768051386E0
3.740760706E0;5.138015747E-1;2.759814262E0;6.798170805E-1
3.758491113E0;1.541938782E-1;3.004268408E0;8.234131932E-1
3.776217431E0;9.045028687E-1;3.835203886E0;1.102836728E0
3.793936670E0;3.759975433E-1;3.574607849E0;-6.845888495E-2
3.811665186E0;-1.635605812E0;3.057439566E0;-3.055775404E0
3.829391565E0;-3.331046104E0;2.822669268E0;-3.967684507E0
3.847120935E0;-3.591432095E0;2.782412291E0;-3.274597883E0
3.864845239E0;-9.437207222E0;-1.600394440E1;-2.216299248E1
3.882570520E0;-3.932446003E0;5.045669556E0;-6.541637421E0
3.900296533E0;2.247438431E-1;4.069879055E0;8.463237286E-1
3.918015161E0;5.090713501E-3;-1.125227213E0;1.456135154E0
3.935749109E0;-1.719135284E0;3.328190744E-2;-1.671497583E0
3.953476099E0;-1.029361725E0;1.598082066E0;-5.071691990E0
3.971205957E0;1.155293465E0;4.511859417E0;-1.763558030E0
3.988923364E0;1.502418518E0;1.793519378E0;2.454918027E-1
4.006651635E0;3.731894493E0;2.859139681E0;2.437057495E0
4.024380884E0;5.796661377E0;3.176056147E0;1.862669468E0
4.042106836E0;3.104446411E0;2.956330299E0;-6.426738501E-1
4.059830102E0;8.064374924E-1;-1.507898271E-1;-1.275315285E-1
4.077560755E0;-4.565362930E-1;3.136166930E-1;1.751599789E0
4.095285669E0;-9.096479416E-1;-5.310031772E-1;1.082409620E0
4.113012109E0;-3.294877052E0;-1.227046847E0;-2.071861267E0
4.130738245E0;-5.893944740E0;-1.906379223E0;-1.720227480E0
4.148463403E0;-6.511128426E0;-2.900091171E0;4.550458193E-1
4.166190942E0;-3.508460999E0;-1.625702620E0;1.058334231E0
4.183916956E0;-6.186237335E-1;-5.317268372E-1;2.988506794E0
4.201643274E0;1.779721260E0;2.183744907E-1;3.759784222E0
4.219368615E0;2.713303566E0;2.617464066E-1;4.622627258E0
4.237095972E0;9.109840393E-1;2.338347435E0;3.881594896E0
4.254821069E0;-4.418239594E-1;1.722827673E0;1.235269308E0
4.272548669E0;-4.982166290E-1;1.446406364E0;2.863626480E-1
4.290270044E0;3.696813583E-1;-3.339004517E-1;-1.040967584E0
4.308002831E0;1.375601768E0;-2.508072376E0;-9.294672012E-1
4.325726831E0;2.626237869E0;-4.220893860E0;-9.887303710E-1
4.343455103E0;6.000147820E0;-3.867358208E0;-3.797199488E0
4.361180383E0;5.949406624E0;-3.360245705E0;-3.615375996E0
4.378903039E0;3.260997772E0;-1.930559158E0;-1.702029228E0
4.396632044E0;1.007067680E0;2.876806259E-2;-2.296341062E-1
4.414352563E0;-9.244785309E-1;6.340632439E-1;8.518331051E-1
4.432088404E0;-3.042654037E0;-8.413314819E-1;6.412923336E-1
4.449810388E0;-4.422108173E0;-3.242583275E-1;-2.814754248E-1
4.467538049E0;-4.669676781E0;1.604660988E0;4.708411694E-1
4.485263879E0;-4.072393417E0;1.317084789E0;7.675244808E-1
4.502992456E0;-3.302047729E0;1.627365589E0;9.919440746E-1
4.520717981E0;-2.541984081E0;2.281234741E0;-2.759814262E-2
4.538442346E0;-1.503101349E0;2.207961082E0;-1.320354939E0
4.556168848E0;-2.001399994E0;3.025837421E0;2.906117201E0
4.573895227E0;-2.427653313E0;2.897687435E0;1.262156248E0
4.591619409E0;-2.428059101E0;1.684427261E0;-1.289257765E0
4.609349085E0;-2.599981785E0;2.728667736E0;2.659558296E0
4.627069849E0;-2.411368847E0;3.545567036E0;3.378663063E0
4.644798669E0;-2.334316492E0;3.943581104E0;1.535371780E0
4.662521692E0;-1.418516278E0;3.650073528E0;-1.160253525E0
4.680255029E0;-7.237852812E-1;4.462690353E0;-1.019973516E0
4.697980981E0;-3.570110202E-1;5.200332642E0;4.480779171E-1
4.715706507E0;4.572303593E-1;3.208882332E0;-8.885121346E-1
4.733428735E0;2.777467966E0;-3.503032684E0;-7.185611725E0
4.751157739E0;2.729200363E0;-1.194809532E1;-5.511043549E0
4.768882837E0;5.122830868E-1;-1.566945744E1;-5.038740158E0
4.786610742E0;-1.119216919E0;-1.243526268E1;-6.314928055E0
4.804336694E0;1.451826096E0;1.491423607E0;-1.238083839E0
4.822057336E0;-1.070001841E0;-5.011405945E-1;-8.706803322E-1
4.839789453E0;-3.753573656E0;-3.723217964E0;5.691337585E-2
4.857515588E0;-4.352684498E0;-5.430569649E0;1.671929121E0
4.875242151E0;-1.865568638E0;-4.125053406E0;2.336490154E0
4.892967737E0;-3.243193626E-1;-2.618561745E0;3.700351715E0
4.910695459E0;-6.362433434E-1;-1.736240387E-1;2.280540228E0
4.928420923E0;-1.533312678E0;-6.163311005E-2;1.573838353E0
4.946146997E0;-1.655852795E-1;-9.320154190E-1;1.984019518E0
4.963868128E0;1.225826979E0;3.474054337E-1;2.173495531E0
4.981599634E0;7.693698406E-1;5.995121002E-1;2.353940010E0
4.999325891E0;-1.992292404E-1;2.027616501E-1;2.634730101E0
5.017048792E0;-9.908522367E-1;-1.847362518E-2;3.340559721E0
5.034773157E0;-1.327841878E0;8.426570892E-1;5.489637375E0
5.052504663E0;-8.472230434E-1;9.621524811E-1;2.900865555E0
5.070219507E0;-3.745286465E-1;8.426170349E-1;-2.816607952E-1
5.087959741E0;-4.406552315E-1;6.493015289E-1;-1.841026545E0
5.105684472E0;-4.870564938E-1;6.700477600E-1;-2.185842752E0
5.123406823E0;-1.274228096E-2;1.631908417E0;-1.303673267E0
5.141135950E0;6.983015537E-1;2.167228699E0;-3.468962312E-1
5.158851098E0;1.098554373E0;1.955643654E0;-1.902049780E-2
5.176589868E0;1.217767239E0;1.605498314E0;-3.973525167E-1
5.194313745E0;1.175305367E0;1.628751755E0;-7.070804238E-1
5.212035180E0;1.032689333E0;1.878417015E0;-6.191225052E-1
5.229767297E0;6.608712673E-1;1.429533005E0;-5.215507150E-1
5.247473413E0;5.357923508E-1;5.959796906E-1;-2.235954404E-1
5.265214502E0;6.294465065E-1;-3.870096207E-1;4.333798885E-1
5.282946069E0;3.225092888E-1;-1.391942024E0;1.303634405E0
5.300673365E0;-7.089103460E-1;-2.534483910E0;-6.535687447E-1
5.318399560E0;-6.670613289E-1;-2.012491226E0;-4.033905506E0
5.336112024E0;4.514508247E-1;-6.831865311E-1;-6.166443825E0
5.353850000E0;1.829717040E0;-6.786899567E-1;-4.936244965E0
5.371577295E0;2.859019756E0;-8.296108246E-1;-2.737741709E0
5.389301843E0;3.669171810E0;-3.614635468E-1;-5.029867887E-1
5.407025842E0;4.493346214E0;1.586370468E-1;-1.302920818E0
5.424755823E0;5.488825321E0;-5.435457230E-1;-4.378179550E0
5.442484948E0;6.370794296E0;-1.229488373E0;-6.119283199E0
5.460208460E0;7.387155056E0;-1.048716545E0;-6.405400276E0
5.477933252E0;6.590075970E0;-1.270689964E0;-5.389350414E0
5.495657495E0;4.052592278E0;-1.320334435E0;-4.427440166E0
5.513387232E0;1.637036085E0;-2.353373528E0;-2.366359234E0
5.531113733E0;6.238803864E-1;-4.206237793E0;6.339644194E-1
5.548838891E0;2.487921715E-2;-5.731723785E0;2.949010134E0
5.566566675E0;-1.380694628E0;-7.469305038E0;5.090826511E0
5.584292444E0;-3.190262794E0;-8.406504631E0;5.740507126E0
5.602019556E0;-4.014338493E0;-6.294111252E0;3.628460407E0
5.619744348E0;-4.555671215E0;-3.005367279E0;-1.371846676E0
5.637471643E0;-4.585844994E0;-9.212999344E-1;-3.567486048E0
5.655197717E0;-5.421716213E0;-7.450094223E-1;1.022051096E0
5.672923792E0;-5.675306320E0;4.026985168E-2;3.591094494E0
5.690651208E0;-5.486234665E0;9.122800827E-1;4.386803150E0
5.708376489E0;-4.296938419E0;2.195641518E0;4.391267776E0
5.726102747E0;-2.920909405E0;3.264165878E0;4.181008339E0
5.743828638E0;-1.997064114E0;3.782117367E0;3.996496677E0
5.761555383E0;-1.633639097E0;3.565827370E0;4.278208256E0
5.779281458E0;-2.123885632E0;2.917449474E0;4.907085419E0
5.797007104E0;-3.660806656E0;2.498213768E0;4.123804092E0
5.814733606E0;-4.603559494E0;3.009933949E0;3.185056210E0
5.832460474E0;-4.357003212E0;3.663088799E0;2.807441473E0
5.850186731E0;-3.104166031E0;3.523144722E0;2.700130939E0
5.867911096E0;-1.204339027E0;2.334238052E0;1.057772636E0
5.885638819E0;1.626659870E0;1.510629654E-1;-5.559308052E0
5.903357690E0;5.302896023E0;-3.208188057E0;-9.480403900E0
5.921080713E0;7.618206501E0;-6.489904404E0;-5.299114704E0
5.938811975E0;7.553009033E0;-5.716698647E0;-3.714701891E0
5.956543115E0;6.375786781E0;-2.857288361E0;-7.615921497E0
5.974270471E0;3.940758228E0;-2.138400078E0;-9.749897957E0
5.991995874E0;1.218083382E0;-4.696628571E0;-2.903518915E0
6.009725977E0;-5.754261017E-1;-5.119217873E0;1.545424581E0
6.027448999E0;-1.800589085E0;-3.042189598E0;4.000371456E0
6.045175379E0;-2.557162762E0;-1.129447937E0;4.457568645E0
6.062901575E0;-3.485791683E0;-9.205341339E-2;3.947235584E0
6.080616174E0;-4.259486675E0;9.574427605E-1;3.046664953E0
6.098353418E0;-5.291798115E0;9.729800224E-1;2.651199102E0
6.116081567E0;-5.297920704E0;-4.388685226E-1;2.661617756E0
6.133805566E0;-3.930108786E0;-1.532072067E0;2.580548525E0
6.151533228E0;-2.737406969E0;-7.948064804E-1;2.131438732E0
6.169257776E0;-2.594647408E0;-2.124576569E-1;1.875808716E0
6.186985620E0;-2.658195972E0;8.645439148E-2;1.804656148E0
6.204712610E0;-2.264849186E0;5.413303375E-1;1.794311523E0
6.222434900E0;-1.591306686E0;1.069631577E0;1.915596247E0
6.240159143E0;-1.078003168E0;1.346720695E0;2.274414778E0
6.257879786E0;-6.810641289E-1;1.128337860E0;2.689573288E0
6.275617456E0;-1.439189911E-1;5.998344421E-1;2.545403004E0
6.293344446E0;5.292377472E-1;9.123802185E-2;1.731377363E0
6.311061670E0;1.411736250E0;6.264495850E-2;4.102007449E-1
6.328796655E0;2.245600462E0;4.983539581E-1;-5.771540403E-1
6.346521936E0;2.987887383E0;1.113097191E0;-1.988322020E0
6.364249231E0;3.030394077E0;1.292963028E0;-4.258477211E0
6.381974024E0;2.227782011E0;1.241886139E0;-5.383822918E0
6.399701806E0;1.107819796E0;7.149467468E-1;-4.108737946E0
6.417424830E0;4.737384319E-1;4.645156860E-2;-2.021254063E0
6.435153284E0;6.025373936E-1;-1.786661148E-1;-2.037679672E0
6.452876611E0;8.903157711E-1;1.613140106E-1;-2.217426538E0
6.470593347E0;8.261148930E-1;-6.467437744E-2;-1.725201249E0
6.488320520E0;9.696450233E-1;-5.613660812E-1;-1.399580836E0
6.506050317E0;1.781811595E0;-6.235971451E-1;-1.212255955E0
6.523784570E0;2.730972767E0;-1.852464676E-1;-7.679288387E-1
6.541510767E0;3.466476202E0;5.550270081E-1;5.477681160E-1
6.559236963E0;4.064143658E0;6.231327057E-1;8.070242405E-1
6.576963342E0;5.170495033E0;-2.793169022E-1;-2.775743484E0
6.594690576E0;6.052356720E0;-1.004039764E0;-6.155981064E0
6.612411096E0;5.887854576E0;-2.035659790E0;-9.060159683E0
6.630142114E0;4.394958496E0;-2.629804611E0;-8.727987289E0
6.647860132E0;2.446334362E0;-1.073747635E0;-5.693705082E0
6.665597314E0;1.165265560E0;-9.931364059E-1;-2.340593338E0
6.683321008E0;6.198966503E-1;-3.182373047E0;6.742304564E-1
6.701039636E0;-9.840965271E-3;-5.972459793E0;2.845364571E0
6.718773462E0;-8.678898811E-1;-8.471909523E0;5.108326435E0
6.736496607E0;-2.460021496E0;-9.621556282E0;6.342139244E0
6.754228968E0;-3.844854116E0;-6.919622421E0;4.697367668E0
6.771951135E0;-4.882896423E0;-2.498595238E0;-1.403165579E0
6.789681237E0;-5.984551430E0;8.456897736E-2;-5.025372505E0
6.807404505E0;-6.792341232E0;2.199783325E-1;-5.001718998E-1
6.825119165E0;-7.130816460E0;3.219580650E-1;3.024805546E0
6.842858850E0;-6.352152824E0;1.440181732E0;3.924259186E0
6.860583704E0;-4.711157799E0;2.850675583E0;3.276439428E0
6.878309717E0;-3.070635080E0;3.497164249E0;2.517787933E0
6.896031458E0;-2.012583017E0;3.119819164E0;2.640434027E0
6.913758813E0;-1.697996378E0;1.989042759E0;3.097287416E0
6.931488794E0;-2.090034485E0;1.414728165E0;3.183484077E0
6.949214563E0;-3.437822580E0;1.708635330E0;2.360304832E0
6.966942286E0;-4.411379814E0;2.436044216E0;2.131729603E0
6.984668054E0;-4.628455162E0;2.786969662E0;1.856944561E0
7.002379663E0;-4.173089027E0;2.611517906E0;1.690594077E0
7.020122033E0;-2.733791828E0;2.047579765E0;1.583975673E0
7.037846338E0;-1.865258217E-1;8.603811264E-1;5.112249851E-1
7.055570398E0;3.547151566E0;-7.761726379E-1;-3.920616150E0
7.073298853E0;7.946842194E0;-2.684610367E0;-9.376241684E0
7.091013696E0;1.010933113E1;-3.448297501E0;-8.061623573E0
7.108753808E0;8.747482300E0;-2.373368263E0;-7.581781387E0
7.126480310E0;5.826763630E0;-1.307258606E0;-7.841266632E0
7.144202661E0;1.483956814E0;-9.412317276E-1;-3.962282896E0
7.161929834E0;-2.189759731E0;-4.096191406E0;9.728908539E-2
7.179656397E0;-3.552310705E0;-6.276000977E0;1.062340856E0
7.197382532E0;-3.159150124E0;-6.365612030E0;3.619083166E-1
7.215104028E0;-3.283375978E0;-3.511888504E0;1.941255331E0
7.232834009E0;-3.861498833E0;-6.500415802E-1;4.409050941E0
7.250561121E0;-4.633045673E0;4.852514267E-1;2.956162930E0
7.268287805E0;-4.856541157E0;1.111190796E0;1.857840776E0
7.286009546E0;-4.154253006E0;3.492288589E-1;1.672479391E0
7.303739893E0;-2.938580990E0;-8.507080078E-1;1.750105858E0
7.321466516E0;-2.230007172E0;-1.546245575E0;1.762391210E0
7.339191919E0;-2.039306164E0;-1.397922516E0;1.991263628E0
7.356919214E0;-2.228256941E0;-6.243333817E-1;2.169086933E0
7.374647973E0;-2.111958027E0;4.261732101E-1;2.316511393E0
7.392371606E0;-1.831377983E0;1.200294495E0;2.521846771E0
7.410100794E0;-1.631941676E0;1.408962727E0;2.826388597E0
7.427822961E0;-1.438952923E0;1.132444382E0;3.022776604E0
7.445548242E0;-8.081016541E-1;6.511640549E-1;2.690517426E0
7.463276880E0;-3.188753128E-2;1.985368729E-1;1.813854456E0
7.480996362E0;7.180068493E-1;-1.138401031E-1;6.400963068E-1
7.498732995E0;1.413768291E0;-6.604194641E-3;-1.263578981E-1
7.516455286E0;2.099934340E0;1.069078445E-1;-9.613533020E-1
7.534178735E0;2.991184473E0;4.516305923E-1;-1.862167239E0
7.551907922E0;4.064406872E0;8.604135513E-1;-2.859027386E0
7.569631921E0;4.525185585E0;1.469145775E0;-4.514948845E0
7.587356225E0;3.478811026E0;1.866444588E0;-6.317509651E0
7.605086633E0;2.017933130E0;1.085433006E0;-6.742982864E0
7.622810022E0;1.886340618E0;-2.042760849E-1;-6.048200607E0
7.640540796E0;3.170867920E0;-7.580757141E-2;-4.146989346E0
7.658246790E0;3.265577316E0;1.604709625E-1;-1.563502550E0
7.675991968E0;2.718328714E0;1.141977310E-1;3.172575235E-1
7.693719079E0;2.679059029E0;-4.764747620E-2;6.956623793E-1
7.711443688E0;2.724157810E0;-2.018699646E-1;8.048778772E-1
7.729170740E0;2.552803993E0;-3.804664612E-1;2.660254240E-1
7.746895288E0;3.394539595E0;-8.848648071E-1;-2.618606806E0
7.764626001E0;5.625219345E0;-1.111171722E0;-6.478250027E0
7.782349329E0;6.968190193E0;-2.415418625E-1;-9.046258926E0
7.800079492E0;6.424948215E0;-2.127552032E-2;-7.824779987E0
7.817800561E0;5.296781063E0;4.423761368E-1;-4.192141533E0
7.835528040E0;3.287506342E0;-8.269815445E-1;-2.044774294E0
7.853254419E0;2.473502874E0;-3.359596252E0;-6.257373095E-2
7.870980188E0;2.021145582E0;-6.106258392E0;1.681507111E0
7.888708155E0;1.103028059E0;-7.964121819E0;3.505997658E0
7.906433130E0;-6.720142365E-1;-8.778350830E0;5.487278938E0
7.924147363E0;-2.968495369E0;-6.519228935E0;5.347148895E0
7.941886682E0;-4.133355141E0;-2.146759987E0;2.623088121E0
7.959612024E0;-5.350778580E0;1.280622482E-1;-7.206966877E-1
7.977338159E0;-5.751681805E0;1.102810860E0;-2.188416243E0
7.995060571E0;-5.597595692E0;1.187432289E0;-3.673796654E-1
8.012791833E0;-5.421423912E0;1.453600407E0;2.133393288E0
8.030517053E0;-4.290680885E0;2.260879517E0;3.537903070E0
8.048243188E0;-2.951014757E0;2.951002121E0;4.019486427E0
8.065969690E0;-1.808571577E0;3.310587883E0;4.112383366E0
8.083696680E0;-1.672408104E0;3.089927197E0;3.778433800E0
8.101420801E0;-3.280766487E0;2.746858597E0;2.870613337E0
8.119147424E0;-4.756614208E0;3.149397850E0;2.271192789E0
8.136874536E0;-5.209304810E0;3.672361374E0;2.115373850E0
8.154600610E0;-4.961605072E0;3.631075382E0;1.789923906E0
8.172327112E0;-3.858001947E0;2.704398632E0;1.481056452E0
8.190045556E0;-1.279035807E0;9.985170364E-1;3.527066708E-1
8.207779565E0;3.071257353E0;-3.314085007E-1;-4.591135979E0
8.225501001E0;1.027806664E1;-1.866374016E0;-1.052736950E1
8.243235986E0;1.227115059E1;-6.272042274E0;-6.032199860E0
8.260954004E0;9.195424080E0;-8.041846275E0;-9.837477684E0
8.278683313E0;6.153017521E0;-4.080793381E0;-6.374327660E0
8.296410547E0;2.342667580E0;-1.814884186E0;6.170430183E-1
8.314124292E0;4.747223854E-1;-1.801242828E0;2.286159992E0
8.331868189E0;-7.393097878E-2;-3.550898552E0;3.051750183E0
8.349589319E0;-1.645127296E0;-5.250825882E0;3.720489740E0
8.367314965E0;-3.475777388E0;-4.491259575E0;5.395089149E0
8.385038477E0;-4.977684975E0;-1.032832146E0;3.195201874E0
8.402768091E0;-6.279163361E0;1.358053684E0;1.916825771E0
8.420493860E0;-6.307884216E0;1.546062469E0;2.154380322E0
8.438220667E0;-5.131132603E0;2.911415100E-1;2.398723125E0
8.455944726E0;-3.935262680E0;-2.174282074E-1;2.134263515E0
8.473662745E0;-3.254460573E0;-7.754573822E-1;1.894532681E0
8.491395532E0;-2.850677967E0;-9.475870132E-1;1.730043650E0
8.509124292E0;-2.342113733E0;-2.727775574E-1;1.688576937E0
8.526851037E0;-1.912137032E0;7.413396835E-1;1.639744997E0
8.544578272E0;-1.693725586E0;1.389361382E0;1.619045973E0
8.562299829E0;-1.456984282E0;1.546852589E0;1.577538848E0
8.580025903E0;-1.025400400E0;1.276632786E0;1.538977385E0
8.597757104E0;-4.222235680E-1;8.776788712E-1;1.494859576E0
8.615472620E0;3.405854702E-1;7.135391235E-1;1.292387247E0
8.633204797E0;1.051336050E0;7.679424286E-1;6.119545698E-1
8.650935755E0;1.636150360E0;7.356395721E-1;-4.238693416E-1
8.668647119E0;2.223852634E0;7.960357666E-1;-1.240863800E0
8.686389062E0;2.697596073E0;9.463214874E-1;-2.080282688E0
8.704114465E0;2.514349461E0;7.492647171E-1;-4.476909637E0
8.721839502E0;2.065839767E0;1.829156876E-1;-7.167570114E0
8.739567102E0;2.121490955E0;-6.762342453E-1;-6.746657372E0
8.757293176E0;2.778265476E0;-8.792257309E-1;-3.925081730E0
8.775019251E0;3.531158447E0;-3.802986145E-1;-1.661166430E0
8.792744348E0;4.483623028E0;2.052192688E-1;-1.373526454E-1
8.810472192E0;5.229990005E0;8.785686493E-1;1.045531154E0
8.828198389E0;6.048600197E0;1.176288605E0;6.325111985E-1
8.845924524E0;7.091438293E0;4.189443588E-1;-7.238792181E-1
8.863650476E0;8.076852798E0;-6.712255478E-1;-1.722121239E0
8.881384241E0;8.110178947E0;-1.198119164E0;-4.273939133E0
8.899102319E0;5.961444378E0;-1.731808662E0;-7.858974457E0
8.916829858E0;2.961364269E0;-9.751796722E-1;-9.722587585E0
8.934547876E0;1.466123104E0;-1.321533203E0;-5.813427925E0
8.952282495E0;1.254513025E0;-3.806860924E0;-5.482901335E-1
8.969996790E0;8.206975460E-1;-6.881159782E0;2.475751162E0
8.987737452E0;-2.291750908E-2;-9.196649551E0;4.813114166E0
9.005463769E0;-1.906498194E0;-1.041492939E1;6.718578339E0
9.023183496E0;-3.920327187E0;-8.095594406E0;6.127188683E0
9.040913538E0;-4.997237682E0;-3.016656876E0;5.921103954E-1
9.058642847E0;-5.776541233E0;1.575870514E-1;-4.069794178E0
9.076367517E0;-6.151883602E0;1.057524204E0;-1.926603556E0
9.094090844E0;-6.332405090E0;1.333960533E0;1.448624134E0
9.111817529E0;-5.812973022E0;2.358071327E0;2.889437675E0
9.129544946E0;-4.406877041E0;3.811373711E0;3.138135433E0
9.147259424E0;-2.833079100E0;4.732737064E0;3.119363785E0
9.164996179E0;-1.598013401E0;4.795435905E0;3.565293789E0
9.182722253E0;-1.522016048E0;3.609195709E0;4.271912098E0
9.200447717E0;-2.817803144E0;2.398872375E0;4.678687096E0
9.218175440E0;-4.357292652E0;2.262238026E0;3.728883743E0
9.235901025E0;-4.968545437E0;2.554600716E0;2.743399620E0
9.253628442E0;-4.579065323E0;2.634895325E0;2.065735817E0
9.271352990E0;-3.158403873E0;1.882628441E0;1.488570809E0
9.289081263E0;-1.327049732E-1;3.433017731E-1;2.320983410E-1
9.306806298E0;5.802164078E0;-1.484793663E0;-9.007328987E0
9.324522180E0;1.246103477E1;-4.276523590E0;-1.956933784E1
9.342259851E0;1.007821655E1;-7.186171532E0;-5.769010544E0
9.359985803E0;4.604952812E0;-6.127301216E0;-1.238203049E0
9.377713281E0;1.409392357E0;1.042022705E-1;-1.974691391E0
9.395438379E0;-1.602386475E0;1.237431526E0;-9.710764885E-2
9.413150293E0;-2.584360123E0;-3.475551605E0;-9.219002724E-1
9.430890528E0;-1.420831680E-2;-6.178139687E0;-3.915174484E0
9.448617151E0;-4.173943996E-1;-7.022232056E0;-3.629687786E0
9.466342248E0;-2.661120415E0;-4.216079712E0;6.593774796E0
9.484065942E0;-4.211699009E0;-1.112432480E-1;6.967252731E0
9.501796594E0;-4.896598816E0;2.234437466E0;5.195014000E0
9.519522485E0;-5.218712807E0;2.322972775E0;3.836136341E0
9.537243860E0;-4.794449806E0;-1.077356339E-1;2.944924116E0
9.554972681E0;-3.195906639E0;-1.111976624E0;2.460928202E0
9.572701989E0;-1.668183327E0;-7.490358353E-1;2.219359159E0
9.590427210E0;-1.206543922E0;-3.990879059E-1;2.421818972E0
9.608148950E0;-1.332148314E0;1.369237900E-1;2.646903515E0
9.625879663E0;-1.224909782E0;1.191208363E0;2.795644283E0
9.643605921E0;-9.136960506E-1;2.061524868E0;2.958393812E0
9.661328577E0;-6.702847481E-1;2.163197517E0;3.092930794E0
9.679052209E0;-4.909172058E-1;1.446806908E0;3.816870213E0
9.696784937E0;2.913904190E-2;4.418754578E-1;5.072419167E0
9.714499536E0;1.122574568E0;-3.918495178E-1;2.425027609E0
9.732226404E0;2.064652443E0;-7.808532715E-1;-2.341335714E-1
9.749966150E0;2.878035784E0;-1.386566162E-1;-3.924805164E0
9.767687036E0;3.447624207E0;1.056352615E0;-8.647294044E0
9.785415979E0;2.993688345E0;1.384514809E0;-9.527343750E0
9.803143152E0;2.292733908E0;7.509746552E-1;-6.074718475E0
9.820869165E0;2.034464836E0;3.403501511E-1;-1.893452168E0
9.838595300E0;2.401844978E0;-1.500244141E-1;-3.101032972E-1
9.856322167E0;2.741157770E0;-1.173643112E0;-1.830897808E0
9.874042688E0;3.300543785E0;-1.441452026E0;-2.454166174E0
9.891759912E0;3.357865334E0;-7.334156036E-1;-1.978118062E0
9.909488489E0;3.518524408E0;-1.705379486E-1;-1.498248696E0
9.927226099E0;4.447662830E0;8.680343628E-2;-1.499535561E0
9.944947900E0;5.772561550E0;1.928052902E-1;-1.187615395E0
9.962680139E0;7.565381050E0;-1.716442108E-1;-2.128512859E0
9.980407373E0;9.020423889E0;-1.838064194E-1;-3.200370789E0
9.998131311E0;9.036417961E0;-3.767023087E-1;-3.601150751E0
1.001585641E1;6.705264091E0;-7.317581177E-1;-6.068084240E0
1.003358358E1;3.793503284E0;-6.164417267E-1;-6.986108780E0
1.005130569E1;2.279484749E0;-1.929624557E0;-3.644868135E0
1.006901760E1;1.663611889E0;-4.433238983E0;-3.926730156E-2
1.008676242E1;1.107377529E0;-6.756344795E0;2.186861515E0
1.010448873E1;7.518053055E-2;-8.734434128E0;4.140531063E0
1.012221505E1;-1.743237734E0;-9.242563248E0;6.570725441E0
1.013993990E1;-4.096187592E0;-6.958766937E0;6.804233074E0
1.015765695E1;-5.482434273E0;-2.854222298E0;2.918297052E0
1.017539474E1;-6.146928787E0;2.583065033E-1;-1.764608145E0
1.019312008E1;-5.982844830E0;1.460272312E0;-8.875017166E-1
1.021084506E1;-5.887092590E0;1.784361839E0;2.205005169E0
1.022857272E1;-4.930329323E0;2.831211090E0;4.012351036E0
1.024629904E1;-3.583576918E0;3.937633038E0;4.838724136E0
1.026402242E1;-2.069377661E0;4.536634445E0;5.064570427E0
1.028175137E1;-7.654428482E-1;4.486194611E0;4.797633648E0
1.029947805E1;-1.049384594E0;3.465870857E0;4.249086380E0
1.031719222E1;-3.355283737E0;2.726918221E0;3.098790646E0
1.033493130E1;-4.852747440E0;3.453846455E0;2.531900883E0
1.035265640E1;-5.098195553E0;4.147373676E0;1.887978792E0
1.037038290E1;-4.716910839E0;3.838505268E0;1.186900616E0
1.038810903E1;-2.659111738E0;2.166428566E0;-5.301952362E-3
1.040583267E1;6.459803581E-1;-3.004779816E-1;-5.717052460E0
1.042356143E1;6.323959827E0;-1.643933296E0;-1.133310127E1
1.044128195E1;1.053280067E1;-5.670739174E0;-6.299303055E0
1.045902114E1;9.938279152E0;-9.369344711E0;-6.201502800E0
1.047674227E1;9.113601685E0;-5.083203316E0;-1.035704231E1
1.049445510E1;4.782467842E0;1.692445278E0;-2.082717180E0
1.051218539E1;8.848719597E-1;4.465448380E0;3.103403568E0
1.052991946E1;-1.769766808E0;1.344038010E0;4.216820717E0
1.054763931E1;-8.147096634E-1;5.387306213E-2;4.078476906E0
1.056537295E1;-8.692123890E-1;-3.854055405E0;5.620213985E0
1.058309347E1;-1.617907286E0;-8.956361771E0;7.017841339E0
1.060082296E1;-2.903625011E0;-1.085612965E1;6.296241760E0
1.061855074E1;-5.147665024E0;-4.083952904E0;1.261252880E0
1.063627273E1;-7.196022034E0;6.453418732E-1;-1.751480341E0
1.065400247E1;-5.795739174E0;1.790964127E0;1.369278431E0
1.067172940E1;-4.873941422E0;2.166459084E0;1.541413069E0
1.068945596E1;-4.263837814E0;1.221138954E0;1.108842492E0
1.070717751E1;-3.072648525E0;3.911447525E-1;8.733926415E-1
1.072491061E1;-1.847805023E0;9.573745728E-2;1.003947973E0
1.074263510E1;-1.255107164E0;3.613262177E-1;1.262390971E0
1.076036080E1;-1.273056030E0;7.645883560E-1;1.321263790E0
1.077808682E1;-1.161893964E0;1.362507820E0;1.336135983E0
1.079581228E1;-7.358224392E-1;1.659174919E0;1.342571497E0
1.081353958E1;-2.276909351E-1;1.358650208E0;1.320700049E0
1.083126126E1;3.200960159E-1;9.232978821E-1;1.024591684E0
1.084899087E1;9.699661732E-1;7.482929230E-1;6.565078497E-1
1.086671945E1;1.576748371E0;4.666690826E-1;2.086534798E-1
1.088444021E1;2.209428787E0;2.119331360E-1;-5.433055758E-2
1.090217123E1;2.950941563E0;2.498950958E-1;2.958754301E-1
1.091989718E1;3.506395817E0;-8.743095398E-2;1.204689980E0
1.093762472E1;4.195777893E0;-6.511020660E-1;-7.535306811E-1
1.095534646E1;5.070680141E0;-1.058855057E0;-5.904636383E0
1.097308200E1;5.335690022E0;-8.093452454E-1;-1.015749359E1
1.099079922E1;4.813676834E0;-3.473253250E-1;-9.949084282E0
1.100852883E1;4.853948116E0;2.703533173E-1;-5.656107426E0
1.102625485E1;4.803712368E0;1.123012543E0;-1.891975641E0
1.104398147E1;6.030984402E0;6.549081802E-1;-2.908240795E0
1.106170846E1;7.930134296E0;-4.896125793E-1;-4.399250031E0
1.107943374E1;9.169235229E0;-8.541030884E-1;-3.499998093E0
1.109716012E1;8.323246002E0;-1.187170982E0;-2.295013189E0
1.111488522E1;5.986801624E0;-1.007331848E0;-3.097192764E0
1.113261245E1;3.819818497E0;-1.468807220E0;-2.723652840E0
1.115033883E1;2.425895452E0;-4.126584053E0;-7.431620955E-1
1.116806124E1;1.322811842E0;-6.956391335E0;1.296361446E0
1.118579183E1;4.902055264E-1;-9.078928947E0;3.608006954E0
1.120351754E1;-1.365023017E0;-1.023318386E1;5.114771843E0
1.122124014E1;-4.099478722E0;-7.937122345E0;3.793346882E0
1.123897170E1;-6.096395969E0;-3.746456146E0;4.445537329E-1
1.125669009E1;-5.945309639E0;-5.656661987E-1;1.484436989E-1
1.127442282E1;-5.583775520E0;1.110498428E0;1.722503185E0
1.129214279E1;-5.530741215E0;2.268492222E0;3.397579670E0
1.130987710E1;-4.850564480E0;3.574722290E0;3.874708652E0
1.132760201E1;-3.991309881E0;4.610498428E0;4.031766891E0
1.134532424E1;-2.945587158E0;5.236142159E0;4.022949696E0
1.136305007E1;-1.951552391E0;5.177498817E0;3.852989197E0
1.138077078E1;-1.367707253E0;4.167958736E0;3.463390350E0
1.139850948E1;-2.349290609E0;3.102657318E0;3.884018898E0
1.141623171E1;-4.042418957E0;2.872284889E0;3.352919579E0
1.143395883E1;-4.712354183E0;3.289659023E0;2.265078306E0
1.145168716E1;-4.500230789E0;3.152127266E0;1.748671889E0
1.146941397E1;-2.915752411E0;1.556350708E0;9.615918398E-1
1.148713870E1;-5.586004257E-1;-1.239933014E0;-3.261842728E0
1.150486508E1;4.284582138E0;-2.855404854E0;-1.247753716E1
1.152259103E1;9.210279465E0;-5.610206604E0;-1.184890556E1
1.154031747E1;9.581208229E0;-8.011014938E0;-4.995068550E0
1.155804226E1;6.347936153E0;-4.521187782E0;-2.876775265E0
1.157577004E1;2.723444700E0;2.677463531E0;-2.397986412E0
1.159349606E1;7.462649345E-1;4.462438583E0;5.967807770E-1
1.161121987E1;4.539968967E-1;-7.025928497E-1;2.536303520E0
1.162894845E1;1.897683859E0;-3.640245438E0;3.252319813E0
1.164667367E1;2.947037220E-1;-6.300421715E0;2.553627968E0
1.166440139E1;-2.552356243E0;-9.184725761E0;4.227390766E0
1.168212741E1;-4.755233288E0;-5.677053452E0;3.242045403E0
1.169985262E1;-6.025983334E0;-2.683591843E-1;4.240192175E-1
1.171758010E1;-5.919835091E0;1.922117710E0;1.470635414E0
1.173530618E1;-5.569779873E0;1.418048859E0;2.392527580E0
1.175302786E1;-4.471161366E0;2.556037903E-2;2.989932060E0
1.177075881E1;-3.103742123E0;-4.802436829E-1;2.923941135E0
1.178848416E1;-2.128243923E0;-5.515136719E-1;2.665690184E0
1.180621163E1;-1.657423615E0;1.625404358E-1;2.334254265E0
1.182393789E1;-1.619017839E0;1.234471321E0;2.066043377E0
1.184166335E1;-1.602651119E0;2.179703236E0;1.951029181E0
1.185938577E1;-1.436960936E0;2.474961281E0;1.741264105E0
1.187711990E1;-9.694306850E-1;1.968903065E0;1.554287195E0
1.189484176E1;-2.436935902E-1;1.170039177E0;1.295210600E0
1.191257192E1;6.573629379E-1;4.608163834E-1;1.075985074E0
1.193029104E1;1.606714010E0;5.184936523E-2;7.043820620E-1
1.194801467E1;2.564919949E0;-4.632949829E-3;-1.505963951E-1
1.196574825E1;3.569559574E0;2.325172424E-1;-9.085576534E-1
1.198347134E1;4.733082294E0;4.851036072E-1;-2.877382278E0
1.200119814E1;5.177110672E0;6.191072464E-1;-6.808354855E0
1.201892721E1;5.159826756E0;5.323600769E-1;-1.015599346E1
1.203663943E1;5.393919468E0;1.242055893E-1;-8.414644241E0
1.205438241E1;5.392948627E0;-1.720829010E-1;-4.063920021E0
1.207210629E1;5.019140244E0;-2.516946793E-1;-9.625859261E-1
1.208983071E1;4.431565762E0;1.172685623E-1;4.149723053E-1
1.210755856E1;3.991180897E0;6.485996246E-1;7.727473974E-1
1.212527078E1;3.834556103E0;5.526237488E-1;-5.454393625E-1
1.214301602E1;4.986616611E0;6.898021698E-2;-3.733420372E0
1.216073763E1;7.648484230E0;-1.397886276E0;-7.291580200E0
1.217845980E1;9.186401367E0;-1.988519669E0;-6.772659779E0
1.219618997E1;8.160914421E0;-1.745757103E0;-4.955877304E0
1.221391842E1;4.973823547E0;-1.151496887E0;-3.213606119E0
1.223164071E1;3.498913765E0;-1.947228432E0;-5.272594690E-1
1.224936886E1;2.196329117E0;-5.215780258E0;2.119455338E0
1.226709493E1;1.237874031E0;-8.511583328E0;4.214542389E0
1.228482156E1;7.052230835E-2;-1.125002956E1;6.732971191E0
1.230253225E1;-2.195964813E0;-1.104840851E1;7.516887665E0
1.232025808E1;-4.472882271E0;-6.067755699E0;4.169591427E0
1.233800161E1;-5.877975464E0;-1.504644394E0;-9.305377007E-1
1.235572695E1;-6.176551819E0;8.406057358E-1;-1.491315126E0
1.237345309E1;-6.436100960E0;1.361817360E0;1.621820807E0
1.239116702E1;-6.165131569E0;2.237105846E0;3.406497955E0
1.240890695E1;-4.845352650E0;3.693630219E0;3.513999224E0
1.242663180E1;-3.396081686E0;4.706690788E0;3.787809849E0
1.244435824E1;-2.026361704E0;4.964672565E0;3.941725254E0
1.246208334E1;-1.415519238E0;4.394915104E0;4.177286625E0
1.247980935E1;-2.871146202E0;3.388082027E0;4.396362782E0
1.249754000E1;-5.072313309E0;3.279484749E0;3.283894539E0
1.251526345E1;-6.027802467E0;3.707849026E0;2.240498304E0
1.253298971E1;-5.818632126E0;3.342782974E0;1.427129507E0
1.255071670E1;-3.885543823E0;1.579995155E0;-8.845472336E-1
1.256844241E1;-8.897781372E-2;-1.970357895E-1;-6.688872337E0
1.258616989E1;5.134104729E0;-1.440457344E0;-8.384015083E0
1.260389504E1;8.862758636E0;-4.333539963E0;-3.616954565E0
1.262162454E1;8.747274399E0;-5.357696533E0;-1.334791660E0
1.263934762E1;7.202385902E0;-1.970441818E0;-2.950080872E0
1.265707070E1;5.437726974E0;1.946547508E0;-5.093322754E0
1.267480142E1;3.053733110E0;-6.806049347E-1;-1.139729977E0
1.269252627E1;3.654255867E-1;-5.732335091E0;1.845321655E0
1.271025259E1;-6.153309345E-1;-6.121187210E0;1.423518658E0
1.272798031E1;-3.062865019E0;-7.135689735E0;-2.714978933E0
1.274570370E1;-5.022401333E0;-5.411800385E0;1.911524177E0
1.276343044E1;-5.910520554E0;-1.544244766E0;1.464546680E0
1.278115481E1;-5.622286320E0;1.051748276E0;3.067636490E0
1.279888668E1;-5.050836563E0;1.739850998E0;3.230342388E0
1.281661056E1;-4.158307076E0;5.604648590E-1;2.977477074E0
1.283433016E1;-2.861819744E0;-1.294012070E-1;2.555999041E0
1.285205978E1;-1.982883096E0;-6.663093567E-1;2.148335695E0
1.286978945E1;-1.403571129E0;-6.992807388E-1;1.921340227E0
1.288751772E1;-8.525533676E-1;1.213502884E-1;1.835566401E0
1.290523733E1;-6.944534779E-1;1.143725395E0;1.864456773E0
1.292296859E1;-7.571120262E-1;1.927870750E0;1.882111669E0
1.294069338E1;-6.792020798E-1;2.246540546E0;1.974597573E0
1.295840597E1;-3.151683807E-1;1.952052116E0;2.368172169E0
1.297613595E1;4.420413971E-1;1.155665398E0;2.842678785E0
1.299386520E1;1.564183712E0;4.730148315E-1;1.280590892E0
1.301159738E1;2.118780136E0;3.193283081E-1;-8.201447129E-1
1.302932711E1;2.141586781E0;7.940530777E-1;-2.282312632E0
1.304704788E1;1.899783015E0;1.458641052E0;-3.181381702E0
1.306477798E1;1.399176836E0;1.561374187E0;-3.552023411E0
1.308250558E1;1.049798012E0;4.481811523E-1;-4.618059635E0
1.310022897E1;1.429428339E0;-1.146368980E0;-6.408919334E0
1.311795840E1;2.701540947E0;-1.852006912E0;-6.168679237E0
1.313568563E1;4.066745758E0;-1.276918411E0;-4.149990082E0
1.315341183E1;5.129731178E0;-4.299964905E-1;-1.697000742E0
1.317113723E1;6.115777493E0;1.335515976E-1;-8.799397945E-2
1.318886221E1;6.704100132E0;8.826122284E-1;-8.646732569E-1
1.320658499E1;6.863971710E0;7.111492157E-1;-3.638676643E0
1.322431606E1;7.585442066E0;-6.133813858E-1;-6.099152565E0
1.324203780E1;7.578116417E0;-8.617048264E-1;-6.396471024E0
1.325976968E1;5.964673996E0;-1.887712479E-1;-6.702269554E0
1.327749514E1;4.643473148E0;3.623561859E-1;-5.975955486E0
1.329522140E1;3.786087275E0;-7.108755112E-1;-4.095788479E0
1.331294778E1;3.501085758E0;-3.833337784E0;-8.177784681E-1
1.333067495E1;3.122965574E0;-7.286442757E0;1.547250986E0
1.334840035E1;2.562032938E0;-9.894110680E0;3.780736446E0
1.336612692E1;1.209762335E0;-1.116199493E1;6.149024963E0
1.338385208E1;-1.371183872E0;-9.036207199E0;7.095015526E0
1.340157961E1;-3.920930386E0;-4.230343819E0;5.119871140E0
1.341930593E1;-5.216007710E0;-4.340639114E-1;1.672999620E0
1.343701913E1;-5.599019051E0;1.807191849E0;4.924678802E-2
1.345476126E1;-5.551448822E0;2.727617741E0;7.559006214E-1
1.347248458E1;-5.446571827E0;3.032251358E0;2.308278799E0
1.349019595E1;-5.107246399E0;3.530321121E0;3.564299107E0
1.350793868E1;-4.238710403E0;4.283827305E0;3.942408085E0
1.352564730E1;-3.383525610E0;4.659071922E0;4.174802780E0
1.354339114E1;-2.751605034E0;4.283391953E0;4.662940979E0
1.356111788E1;-2.709847450E0;3.559148788E0;5.125325680E0
1.357883724E1;-3.327495098E0;3.269006729E0;4.823875427E0
1.359656942E1;-4.239027500E0;3.187173843E0;3.251053810E0
1.361429513E1;-4.576068401E0;2.854720592E0;2.047490120E0
1.363201925E1;-3.777659416E0;1.408975601E0;1.026610851E0
1.364974825E1;-1.763025761E0;-7.902345657E-1;-1.386876345E0
1.366747463E1;1.292992592E0;-2.790068626E0;-6.544740677E0
1.368520089E1;7.505264759E0;-4.716795921E0;-1.557407475E1
1.370291549E1;1.035240555E1;-7.686235428E0;-6.781135082E0
1.372065377E1;8.108228683E0;-5.433393478E0;-3.826546669E0
1.373837893E1;6.165502548E0;1.252549648E0;-4.206773758E0
1.375610324E1;2.963915825E0;5.069282055E0;5.659673214E-1
1.377381991E1;-4.502606392E-1;2.430891991E0;1.523977041E0
1.379155911E1;-6.237435341E-2;-3.491353989E-1;2.584971905E0
1.380928720E1;5.224595070E-1;-2.992223740E0;2.967896461E0
1.382701461E1;-8.954730034E-1;-8.039998055E0;9.633553028E-1
1.384473873E1;-2.072998047E0;-1.084714031E1;3.771326065E0
1.386246462E1;-3.045724630E0;-4.485679626E0;1.890368938E0
1.388018606E1;-4.067524910E0;8.931550980E-1;-4.905402660E-1
1.389790841E1;-4.729817867E0;3.433457851E0;-3.607976437E-2
1.391564352E1;-4.493246078E0;2.926791191E0;1.376477718E0
1.393337106E1;-3.986026764E0;6.415958405E-1;2.500786304E0
1.395110348E1;-3.075096607E0;-5.367660522E-1;2.878333092E0
1.396882125E1;-2.370004177E0;-4.926872253E-1;2.829412222E0
1.398654617E1;-2.374563217E0;2.359266281E-1;2.483526230E0
1.400427535E1;-2.497661591E0;1.138711929E0;1.932628036E0
1.402200594E1;-2.169842482E0;1.733579636E0;1.423325419E0
1.403972787E1;-1.578231931E0;1.518529892E0;8.519556522E-1
1.405745461E1;-8.819451332E-1;7.819213867E-1;3.225613534E-1
1.407518118E1;-1.468474865E-1;5.225563049E-2;9.104624391E-3
1.409290719E1;5.857543945E-1;-3.887319565E-1;-3.407115340E-1
1.411063210E1;1.263547182E0;-2.847385406E-1;-5.703760386E-1
1.412836013E1;1.860458255E0;1.636857986E-1;-5.317885876E-1
1.414608352E1;2.469464302E0;6.479511261E-1;3.436051011E-1
1.416381179E1;3.483944416E0;9.599304199E-1;1.652945042E0
1.418153884E1;5.167103767E0;2.650022507E-1;-1.852251768E0
1.419926510E1;6.238767147E0;-6.080360413E-1;-8.919184685E0
1.421699197E1;5.883608341E0;-5.650873184E-1;-1.305715561E1
1.423471725E1;4.473644733E0;-3.094511032E-1;-8.094158173E0
1.425243960E1;3.632327557E0;-2.346286774E-1;-2.850509167E0
1.427017044E1;3.514474392E0;4.483652115E-1;2.624902725E-1
1.428789993E1;3.392347574E0;8.906717300E-1;-9.910454154E-1
1.430562405E1;4.074944019E0;1.134392738E0;-3.348376751E0
1.432333315E1;6.520133972E0;2.082271576E-1;-5.158152103E0
1.434107284E1;7.921278477E0;-2.932271957E-1;-4.609141350E0
1.435879238E1;7.762026310E0;2.664289474E-1;-4.495965004E0
1.437652987E1;6.146270752E0;-3.753557205E-1;-5.023887157E0
1.439425241E1;4.513075352E0;-2.187131882E0;-1.933573127E0
1.441198098E1;3.721403599E0;-4.938591957E0;8.287404180E-1
1.442970938E1;3.029881001E0;-7.698082924E0;2.491670609E0
1.444743460E1;1.824337244E0;-1.007890892E1;4.736302376E0
1.446516116E1;-9.302425385E-1;-1.063562679E1;6.561100960E0
1.448288742E1;-4.542768478E0;-6.181470871E0;5.063261032E0
1.450061691E1;-5.484919548E0;-1.632496834E0;7.612538338E-2
1.451834036E1;-5.395888805E0;5.470275879E-1;-1.677360773E0
1.453606198E1;-5.215215683E0;1.242331505E0;1.086318493E-1
1.455378835E1;-5.388531685E0;1.496859074E0;1.868337154E0
1.457151956E1;-5.035867691E0;2.337213993E0;3.153156281E0
1.458923953E1;-4.223039150E0;3.451179028E0;3.846188545E0
1.460697311E1;-3.367283583E0;4.377093792E0;4.167767048E0
1.462469985E1;-2.634119272E0;4.835792065E0;4.289245605E0
1.464242532E1;-2.667593002E0;4.536461353E0;4.554127693E0
1.466013967E1;-3.952316761E0;3.996824741E0;4.891509056E0
1.467787844E1;-5.036130905E0;3.941219330E0;4.295977592E0
1.469560427E1;-4.900070190E0;3.917770386E0;2.588118076E0
1.471332937E1;-2.649822712E0;3.208812714E0;1.848369122E0
1.473105270E1;-5.249023438E-2;9.815807343E-1;4.923398495E-1
1.474877188E1;4.498369217E0;-2.140717506E0;-1.347054577E1
1.476650973E1;9.183259964E0;-4.703436852E0;-1.495123768E1
1.478423507E1;9.893318176E0;-8.116259575E0;-6.524134636E0
1.480195944E1;6.287921906E0;-6.664720535E0;-3.426163197E0
1.481968984E1;2.141244650E0;-2.903366089E-1;-4.513995171E0
1.483741232E1;-2.374234200E-1;2.780275345E-1;4.525542259E-2
1.485513741E1;1.832633018E-1;-8.209667206E-1;2.027095318E0
1.487286831E1;1.276907444E0;-2.395629883E0;2.402762651E0
1.489059414E1;-3.463776112E-1;-5.728919983E0;4.895340204E-1
1.490832223E1;-2.945957184E0;-6.982732773E0;3.098403215E0
1.492603079E1;-4.290976524E0;-2.924553871E0;3.097117901E0
1.494377371E1;-4.088929176E0;1.572353363E0;2.282067537E0
1.496149972E1;-3.955197811E0;3.498402119E0;2.459867477E0
1.497922366E1;-3.230552197E0;1.833190441E0;2.342245579E0
1.499695321E1;-2.129930973E0;1.348304749E-1;2.297985315E0
1.501466891E1;-1.240028143E0;-6.197385788E-1;2.327142239E0
1.503240621E1;-7.795093060E-1;-7.983608246E-1;2.628960371E0
1.505013186E1;-5.607287884E-1;5.771827698E-2;2.852929115E0
1.506785574E1;-6.658892632E-1;1.399316788E0;2.873796940E0
1.508558352E1;-8.508419991E-1;2.397150993E0;2.802188873E0
1.510330050E1;-8.490455151E-1;2.651309013E0;2.710694790E0
1.512103256E1;-3.782742023E-1;2.068006516E0;2.626214504E0
1.513876388E1;4.708647728E-1;1.027121544E0;2.330249548E0
1.515648586E1;1.479875803E0;4.327802658E-1;8.578749895E-1
1.517421652E1;2.161108971E0;1.852598190E-1;-1.189825773E0
1.519194332E1;2.351577759E0;4.148874283E-1;-3.401904345E0
1.520967074E1;2.233139992E0;1.013811111E0;-5.662199497E0
1.522739132E1;2.006633282E0;1.322078705E0;-7.109480381E0
1.524512228E1;1.934754372E0;1.132085800E0;-6.199732304E0
1.526284786E1;1.712997317E0;6.451349258E-1;-3.843648672E0
1.528057638E1;1.786386728E0;1.821851730E-1;-2.490287066E0
1.529830178E1;2.518183708E0;-1.105222702E-1;-2.628525734E0
1.531602383E1;3.679959536E0;1.454582214E-1;-2.499638557E0
1.533375314E1;5.156008244E0;7.355594635E-2;-2.312524319E0
1.535148092E1;6.421761036E0;-2.578725815E-1;-1.170972586E0
1.536920437E1;7.840283871E0;-5.933380127E-1;4.897303581E-1
1.538693240E1;9.144728661E0;-1.161712646E0;-3.233831882E0
1.540464736E1;9.594055176E0;-1.377674103E0;-6.814819336E0
1.542238906E1;8.586045265E0;-1.535420418E0;-8.149350166E0
1.544011300E1;5.818980694E0;-8.291721344E-1;-7.649815559E0
1.545783633E1;2.823122501E0;-2.104108810E0;-5.478236675E0
1.547556613E1;1.891661882E0;-4.939085007E0;-5.960295200E-1
1.549329110E1;1.466490030E0;-8.056728363E0;2.837204695E0
1.551102377E1;1.589808464E-1;-1.073296356E1;5.395877838E0
1.552874008E1;-1.659159541E0;-1.142953110E1;7.571025848E0
1.554646865E1;-3.286707640E0;-8.013788223E0;6.795742989E0
1.556419778E1;-4.808434010E0;-3.965577126E0;4.179466724E0
1.558192501E1;-5.794960976E0;-1.650838852E-1;-2.226316214E0
1.559965017E1;-6.214472294E0;1.433691978E0;-4.061784744E0
1.561737692E1;-6.478296757E0;1.439200878E0;1.883435249E-2
1.563510324E1;-6.211834908E0;2.226486683E0;2.471093893E0
1.565282864E1;-5.161883354E0;3.606233120E0;3.459057331E0
1.567054385E1;-3.701917171E0;4.688269615E0;3.939483881E0
1.568828286E1;-2.359953403E0;5.171526909E0;4.408887863E0
1.570600930E1;-1.589012861E0;4.997731209E0;4.964277267E0
1.572373403E1;-2.160044909E0;4.529439449E0;5.471226692E0
1.574146169E1;-4.042880535E0;3.900296688E0;3.974219799E0
1.575917532E1;-5.382609367E0;3.668161869E0;2.301747084E0
1.577691897E1;-4.900447369E0;3.570178032E0;1.589643121E0
1.579464083E1;-2.433576107E0;2.488262177E0;1.457819700E0
1.581236495E1;1.103344440E0;4.932613373E-1;-4.392673969E0
1.583008914E1;7.889985085E0;-1.221011162E0;-1.460671329E1
1.584781912E1;1.188969326E1;-3.942942619E0;-7.540759087E0
1.586554666E1;1.168962860E1;-6.205174446E0;-2.564461946E0
1.588327419E1;8.785985947E0;-4.666799545E0;-4.710549831E0
1.590099783E1;2.868284464E0;-1.833152771E-1;-2.362058640E0
1.591872488E1;-4.293491840E-1;-1.188602448E0;8.478724957E-2
1.593645242E1;-6.173210144E-1;-4.982459068E0;-7.721381187E-1
1.595417965E1;-5.678863525E-1;-8.549770355E0;-6.883846283E0
1.597189364E1;-3.010019302E0;-9.304057121E0;1.347140551E0
1.598963436E1;-5.013357639E0;-3.590774536E0;5.735317230E0
1.600735812E1;-5.020685196E0;1.176170826E0;4.705376625E0
1.602508132E1;-4.733608246E0;3.643682957E0;3.407147169E0
1.604280972E1;-4.474447727E0;2.127326012E0;3.064338446E0
1.606053134E1;-3.482222080E0;-6.760778427E-1;3.569324493E0
1.607826748E1;-2.128325462E0;-1.986290932E0;4.166137695E0
1.609598971E1;-1.265528440E0;-1.697870255E0;4.600896835E0
1.611371816E1;-1.364282131E0;-3.595724106E-1;4.129484177E0
1.613144192E1;-1.598284841E0;1.022484779E0;3.401813030E0
1.614916940E1;-1.526305556E0;2.144641876E0;3.021268845E0
1.616689608E1;-1.181364655E0;2.652098179E0;2.834379196E0
1.618461923E1;-7.957595587E-1;2.184962749E0;3.053534031E0
1.620233261E1;-2.984647751E-1;1.061557770E0;3.354685307E0
1.622006429E1;6.182391644E-1;-4.863929749E-2;1.821159363E0
1.623779287E1;1.647860289E0;-5.255270004E-1;-5.430917740E-1
1.625553018E1;2.589648247E0;1.251144409E-1;-3.576414585E0
1.627325418E1;3.139687061E0;9.791812897E-1;-7.633191109E0
1.629097781E1;2.936445236E0;1.373874664E0;-9.899381638E0
1.630870754E1;2.441245079E0;1.368250847E0;-7.243823051E0
1.632642849E1;2.229413509E0;1.116982460E0;-3.762438059E0
1.634415951E1;2.441384792E0;4.674520493E-1;-1.971503735E0
1.636188479E1;3.066229820E0;-2.285289764E-1;-1.709347248E0
1.637960989E1;3.914086819E0;-5.595865250E-1;-1.592949510E0
1.639732748E1;4.568234444E0;-5.656967163E-1;-1.258167863E0
1.641506124E1;4.585949898E0;-1.569252014E-1;-3.940962553E-1
1.643279080E1;3.843134403E0;-6.222438812E-2;1.258245349E0
1.645051809E1;4.183742046E0;-1.076292992E0;-1.350898981E0
1.646824453E1;6.289244652E0;-1.739714622E0;-5.615474224E0
1.648597097E1;8.096038818E0;-1.896558762E0;-8.790780067E0
1.650369552E1;8.809920311E0;-1.652425766E0;-1.074082088E1
1.652142404E1;6.787275791E0;-5.212621689E-1;-6.845275402E0
1.653913827E1;4.739376545E0;-7.705469131E-1;-2.386945724E0
1.655687789E1;4.031546116E0;-2.495131493E0;8.022342920E-1
1.657460330E1;2.856832266E0;-5.987786293E0;2.469364166E0
1.659232931E1;2.291755676E0;-8.673174858E0;4.306522369E0
1.661005154E1;1.492511988E0;-9.744193077E0;6.189200878E0
1.662778225E1;-1.776349545E-1;-7.291009903E0;6.355062962E0
1.664551162E1;-2.095732450E0;-3.162774086E0;5.657994270E0
1.666323507E1;-3.457031250E0;1.227016449E-1;4.481586456E0
1.668096017E1;-4.850151062E0;1.995794773E0;1.030002594E0
1.669868917E1;-5.674139500E0;3.017168045E0;-3.129643679E0
1.671640975E1;-5.484088898E0;2.565622330E0;-1.545811892E0
1.673414114E1;-5.367252827E0;1.812904358E0;1.985759258E0
1.675186721E1;-4.810991287E0;1.931629658E0;4.066914082E0
1.676959408E1;-4.052809238E0;2.557996750E0;4.935631752E0
1.678732009E1;-3.235638142E0;3.080916405E0;5.309339046E0
1.680503713E1;-2.714588642E0;3.227923393E0;4.797617912E0
1.682277218E1;-2.607919693E0;2.913835526E0;2.989649534E0
1.684049929E1;-3.045429945E0;2.389146805E0;1.149612427E0
1.685822317E1;-2.879935026E0;2.552915573E0;8.850264549E-2
1.687594998E1;-1.345093012E0;2.631215096E0;-4.486989975E-1
1.689366518E1;1.254843950E0;2.228965759E0;-7.236368656E-1
1.691140365E1;4.053069115E0;1.614362717E0;-2.780435562E0
1.692913113E1;6.914460659E0;-5.873966217E-2;-6.910516739E0
1.694685470E1;8.809899330E0;-2.542230606E0;-7.074979782E0
1.696457565E1;8.693798065E0;-3.672008514E0;-4.821172714E0
1.698230666E1;6.543267250E0;-1.836438179E0;-3.365459204E0
1.700003494E1;3.772232294E0;-1.584466934E0;-2.951846600E0
1.701776290E1;1.095635176E0;-5.440359116E0;5.429792404E-2
1.703548684E1;-6.820273399E-2;-7.541659355E0;-1.632079363E0
1.705321578E1;-6.216609478E-1;-7.412107468E0;-4.302912712E0
1.707094216E1;-3.251192331E0;-2.592114449E0;4.861566544E0
1.708866958E1;-5.222502708E0;1.435333252E0;5.456726074E0
1.710637918E1;-5.827158928E0;2.586459160E0;3.416689634E0
1.712412161E1;-5.486771584E0;4.806327820E-1;4.308239937E0
1.714184689E1;-4.368523598E0;-2.333472252E0;4.143031120E0
1.715957418E1;-2.879294157E0;-2.681098938E0;3.337636471E0
1.717729617E1;-1.316995859E0;-6.859636307E-1;2.723512411E0
1.719502273E1;-3.525366783E-1;5.991840363E-2;2.596027851E0
1.721275363E1;7.738394737E-1;-9.716129303E-2;2.734440088E0
1.723048068E1;2.343946457E0;4.163885117E-1;3.064886570E0
1.724820651E1;3.663156986E0;1.610107422E0;3.918748856E0
1.726593295E1;3.100653648E0;3.101540565E0;1.357777691E1
1.728365847E1;2.883149624E0;2.957972527E0;5.622159004E0
1.730139065E1;1.317680955E0;1.073849678E0;1.008584976E0
1.731911105E1;9.180984497E-1;-7.718906403E-1;-6.629460335E0
1.733683547E1;2.093478203E0;-5.960407257E-1;-1.315626431E1
1.735456497E1;3.128545046E0;5.768489838E-1;-1.141195202E1
1.737228170E1;3.419672012E0;9.118318558E-1;-4.962522984E0
1.739002364E1;2.380802631E0;1.912054062E0;2.554712772E0
1.740774288E1;3.122133255E0;2.580115318E0;1.576910496E0
1.742546725E1;3.632730007E0;1.994445801E0;-6.813299656E-1
1.744319674E1;3.689766407E0;1.727963448E0;-1.032210469E0
1.746092098E1;3.273395538E0;1.132456779E0;-6.358582973E-1
1.747864547E1;2.176572800E0;-3.266992569E-1;3.440785408E-1
1.749637624E1;4.252992868E-1;-2.660268784E0;1.060855150E0
1.751410220E1;-3.505054116E-1;-4.813416481E0;-1.536246777E0
1.753182888E1;1.549359798E0;-3.921286583E0;-5.926064968E0
1.754955801E1;4.782886982E0;-1.865923882E0;-8.873181343E0
1.756728176E1;7.900400639E0;-1.233023643E0;-8.917314529E0
1.758500832E1;1.033395863E1;-1.754695892E0;-5.829940796E0
1.760273574E1;1.176601219E1;-5.692100525E-1;-1.913027525E0
1.762046102E1;1.118044472E1;1.103134155E0;-7.179064751E-1
1.763818026E1;8.427796364E0;4.563884735E-1;-9.485390186E-1
1.765591360E1;6.216050148E0;-1.767211914E0;6.925708055E-2
1.767363229E1;5.140122890E0;-4.405303001E0;1.602511048E0
1.769136276E1;4.536085129E0;-6.436602592E0;3.515007496E0
1.770909170E1;2.955550194E0;-8.553918839E0;6.439713478E0
1.772682296E1;3.959231377E-1;-8.726766586E0;8.522762299E0
1.774454855E1;-1.061884880E0;-4.871824265E0;8.072022438E0
1.776227200E1;-2.223765373E0;-1.224691391E0;6.843819618E0
1.777999856E1;-3.602032185E0;6.151685715E-1;5.394393921E0
1.779772567E1;-4.721379280E0;1.579740524E0;3.839074135E0
1.781545095E1;-5.222650528E0;2.424257755E0;4.924209118E-1
1.783317477E1;-5.058576584E0;3.140857697E0;-2.573688269E0
1.785089919E1;-4.928451538E0;2.811676979E0;-4.837610722E-1
1.786863003E1;-4.996738434E0;2.622753620E0;3.009639502E0
1.788635696E1;-4.850538254E0;2.710648537E0;4.994845390E0
1.790408614E1;-4.644798279E0;3.133066654E0;5.844014645E0
1.792180874E1;-4.854194164E0;3.386742592E0;5.540483475E0
1.793953262E1;-5.726659298E0;3.090117455E0;2.749986887E0
1.795726534E1;-6.286949158E0;2.769985676E0;1.939337254E-1
1.797498873E1;-5.248577595E0;1.582742691E0;-2.565605402E0
1.799270376E1;-1.550501823E0;-1.768379211E-1;-5.253515720E0
1.801044143E1;2.770127296E0;-1.792931557E0;-6.819744587E0
1.802815615E1;7.179225922E0;-3.173146248E0;-6.157022476E0
1.804589706E1;1.137520599E1;-5.054165840E0;-4.528654575E0
1.806362057E1;1.150160789E1;-4.283238411E0;-5.766469955E0
1.808134396E1;8.749752045E0;-1.774513245E0;-3.133545876E0
1.809906814E1;5.586254597E0;-4.006715775E0;1.613697171E0
1.811680050E1;3.335341215E0;-8.357627869E0;-8.549547195E-2
1.813451248E1;8.084301949E-1;-1.011788750E1;-6.885369301E0
1.815224746E1;-4.429242134E0;-3.903085709E0;6.201927185E0
1.816997756E1;-7.379476547E0;1.466340065E0;7.732760429E0
1.818770657E1;-7.626259327E0;4.841132641E0;3.884365559E0
1.820543307E1;-7.336687088E0;4.916709423E0;2.879582644E0
1.822315475E1;-6.952400208E0;1.259510040E0;3.880728722E0
1.824088455E1;-6.121127129E0;-2.246914864E0;3.587150574E0
1.825861111E1;-4.828774929E0;-3.834690094E0;1.527209759E0
1.827633761E1;-2.768184185E0;-1.933744431E0;2.550755739E-1
1.829405947E1;-8.625092506E-1;-1.928014755E-1;3.818581104E-1
1.831179037E1;3.557548523E-1;8.046445847E-1;1.035911083E0
1.832951638E1;8.643214703E-1;1.625642300E0;1.784247160E0
1.834724313E1;7.967042923E-1;2.174466133E0;2.645767212E0
1.836496926E1;2.396123409E-1;2.574805737E0;5.833718300E0
1.838269576E1;-7.051531076E-1;1.825422287E0;6.684038162E0
1.840042239E1;-4.018756151E-1;-3.048362732E-1;-6.098185182E-1
1.841814303E1;8.793718815E-1;-7.590799332E-1;-8.769087791E0
1.843587478E1;2.147850037E0;3.536634445E-1;-1.083415222E1
1.845360159E1;2.379088879E0;1.033124924E0;-6.609532356E0
1.847132137E1;2.134877682E0;1.322621346E0;-2.338517189E0
1.848904720E1;1.978819132E0;1.240976334E0;4.080875516E-1
1.850676998E1;2.181490660E0;9.750690460E-1;1.832598805E0
1.852450796E1;2.099970341E0;-3.987436295E-1;9.387224913E-1
1.854223342E1;1.567182064E0;-1.394409180E0;3.879475594E-2
1.855995675E1;8.062237501E-1;-2.030138016E0;-9.598739147E-1
1.857768691E1;1.613581181E-1;-2.709320068E0;-3.017268658E0
1.859540579E1;2.444793940E0;-2.783512115E0;-5.443505764E0
1.861314156E1;5.344117165E0;-1.973553658E0;-6.092296124E0
1.863086544E1;7.807834625E0;-9.150543213E-1;-5.166272163E0
1.864859139E1;1.029439259E1;8.862295151E-1;-5.105779648E0
1.866631820E1;1.168129921E1;2.688065529E0;-8.162324905E0
1.868404110E1;1.088409138E1;2.210595131E0;-6.768634319E0
1.870177078E1;7.689312935E0;4.195356369E-1;-3.029305458E0
1.871949673E1;5.481925964E0;-1.206720352E0;-2.070632458E0
1.873722335E1;4.957712173E0;-2.683881760E0;-1.501160979E0
1.875494876E1;3.953547955E0;-4.520729065E0;1.060054824E-1
1.877266250E1;3.017235279E0;-6.416662216E0;2.096741199E0
1.879040231E1;1.146308899E0;-8.878351212E0;5.132007599E0
1.880812893E1;-1.283335209E0;-1.095761108E1;8.064413071E0
1.882584988E1;-3.438844442E0;-1.037158012E1;7.891343594E0
1.884358181E1;-4.805165291E0;-6.126954079E0;4.808744431E0
1.886130825E1;-5.316213608E0;-1.180909157E0;-4.740862846E0
1.887902975E1;-5.347631931E0;5.607233047E-1;-3.963764429E0
1.889674545E1;-6.314832211E0;3.063020706E-1;1.791542053E0
1.891448733E1;-6.118206501E0;1.435847759E0;4.208966732E0
1.893221353E1;-5.214364052E0;3.050770283E0;4.650750160E0
1.894993990E1;-3.753160000E0;4.563826084E0;4.060708046E0
1.896766634E1;-1.953512669E0;5.113978863E0;2.847010851E0
1.898539285E1;-1.566850662E0;4.517164707E0;3.402182817E0
1.900311910E1;-3.576467514E0;3.746924877E0;4.247019768E0
1.902084475E1;-6.599928379E0;3.445643425E0;3.876089096E0
1.903857205E1;-7.161838531E0;2.771956921E0;1.419379830E0
1.905629830E1;-5.907195568E0;1.882141113E0;-3.023276329E-1
1.907402023E1;-4.270826340E0;2.211408138E0;-5.280058384E-1
1.909175118E1;-1.270066738E0;3.060381413E0;6.183028221E-2
1.910947732E1;2.488017559E0;9.286861420E-1;7.692186832E-1
1.912719637E1;5.391811848E0;-4.804073334E0;-9.052381516E-1
1.914491519E1;8.833106041E0;-5.543596268E0;-7.251578331E0
1.916265798E1;1.271171284E1;-9.259252548E-1;-1.149382782E1
1.918038308E1;1.130415726E1;2.240314484E0;-6.177753448E0
1.919810476E1;4.732192039E0;1.649679184E0;3.159427643E-2
1.921583126E1;-4.234638214E-1;-2.088420868E0;4.752552032E0
1.923356228E1;-2.951587200E0;-5.085871696E0;5.331561089E0
1.925127670E1;-5.352054119E0;-9.914640427E0;-3.398444176E0
1.926901705E1;-8.586450577E0;-1.353994656E1;-5.720061779E0
1.928674117E1;-7.404870033E0;-6.034035683E0;3.065259933E0
1.930446762E1;-5.844900131E0;-1.797037125E-1;3.952315807E0
1.932219412E1;-5.007174492E0;2.326735497E0;3.350797415E0
1.933991464E1;-4.741856575E0;1.789037704E0;3.127274275E0
1.935764553E1;-4.321303844E0;6.205749512E-2;2.379048347E0
1.937537307E1;-2.943326473E0;-2.256755829E-1;1.821578264E0
1.939308773E1;-1.272192955E0;2.683305740E-1;1.729690552E0
1.941082473E1;5.364179611E-3;8.120775223E-1;1.948476315E0
1.942853848E1;3.141176701E-1;1.297252655E0;2.323420048E0
1.944627010E1;-9.041261673E-2;2.102717876E0;2.789225101E0
1.946399441E1;-6.160705090E-1;2.853884697E0;3.169241905E0
1.948173397E1;-9.341627359E-1;2.717265606E0;4.146534920E0
1.949945260E1;-8.793998957E-1;1.684792995E0;6.058067322E0
1.951718337E1;-5.108189583E-2;-2.927494049E-1;2.373640060E0
1.953491036E1;9.191086292E-1;-1.496849060E0;-1.042889118E0
1.955263790E1;1.627943516E0;-1.192151070E0;-4.145694733E0
1.957036331E1;1.945944548E0;-3.218936920E-2;-7.202310085E0
1.958808950E1;1.771550775E0;4.414243698E-1;-8.656044960E0
1.960581478E1;1.737506390E0;3.905973434E-1;-7.008783817E0
1.962354244E1;2.000735760E0;2.051000595E-1;-3.896060228E0
1.964125808E1;2.817142963E0;-4.562234879E-1;-2.444048166E0
1.965899441E1;4.011825562E0;-9.142818451E-1;-3.656264305E0
1.967671945E1;4.836568832E0;-9.820842743E-1;-4.012066841E0
1.969444778E1;5.607623577E0;-6.631050110E-1;-3.242469072E0
1.971217404E1;6.022758007E0;-1.212339401E-1;-1.480744362E0
1.972989919E1;5.821639538E0;4.513912201E-1;-1.663745046E0
1.974762692E1;6.615277290E0;8.557510376E-1;-6.192932129E0
1.976535354E1;8.653738022E0;8.837795258E-1;-9.271091461E0
1.978307888E1;8.531565666E0;1.530991554E0;-6.821245193E0
1.980080062E1;6.811363697E0;1.100119591E0;-3.951907873E0
1.981852761E1;5.316064835E0;-1.255209923E0;-2.679430962E0
1.983626296E1;4.986498356E0;-4.691206932E0;-9.593185186E-1
1.985397433E1;4.697461128E0;-8.161262512E0;8.765128851E-1
1.987171176E1;3.628810406E0;-1.124145508E1;3.588193417E0
1.988943514E1;1.077398062E0;-1.373052788E1;7.345333099E0
1.990714584E1;-1.834285975E0;-1.215064049E1;8.557214737E0
1.992489297E1;-3.565904379E0;-6.207034111E0;6.882984161E0
1.994261721E1;-6.143925667E0;-1.894782066E0;2.587566853E0
1.996034298E1;-8.136525154E0;1.245079041E0;-6.096709251E0
1.997806588E1;-8.263268471E0;2.384172916E0;-4.910934448E0
1.999579531E1;-8.146392822E0;2.146927357E0;7.948524952E-1
2.001352249E1;-7.426254272E0;2.705113888E0;3.961960554E0
2.003124264E1;-6.155974388E0;3.845892906E0;4.871067047E0
2.004897543E1;-5.113964081E0;4.556787014E0;5.254626274E0
2.006670223E1;-4.388746738E0;4.640418053E0;5.512533188E0
2.008442782E1;-4.141604900E0;4.100982666E0;5.135164261E0
2.010214950E1;-4.906254768E0;3.237205029E0;4.092309475E0
2.011988064E1;-5.845870018E0;2.952980042E0;2.754936695E0
2.013760671E1;-4.882364750E0;2.634912491E0;2.208949566E0
2.015533358E1;-2.374064207E0;1.088376045E0;7.143859863E-1
2.017305367E1;1.568950653E0;-1.939065933E0;-9.159963608E0
2.019078604E1;6.090233803E0;-4.212504387E0;-1.323465157E1
2.020851217E1;8.176157951E0;-7.221891403E0;-8.540642738E0
2.022623867E1;7.112918854E0;-5.951523781E0;-1.979354858E0
2.024396505E1;6.303392410E0;-8.449172974E-2;-2.111396790E-1
2.026169277E1;3.707854748E0;1.306083679E0;8.206391335E-2
2.027941744E1;3.290829659E-1;-4.799948692E0;1.799357295E0
2.029714425E1;-3.571720123E-1;-7.865558624E0;-5.527080297E-1
2.031487063E1;-1.214392662E0;-8.060860634E0;-4.118391514E0
2.033259420E1;-4.158088684E0;-3.180933952E0;2.582138538E0
2.035032266E1;-5.477020264E0;9.561538696E-1;2.900776625E0
2.036804562E1;-5.658724785E0;2.765386581E0;2.858143806E0
2.038577584E1;-5.698029518E0;8.694968224E-1;3.220564842E0
2.040350253E1;-4.914232731E0;-1.422873497E0;3.391256094E0
2.042122384E1;-3.768354893E0;-8.095979691E-1;2.829146385E0
2.043895181E1;-3.317502260E0;1.173868179E-1;2.392413616E0
2.045668282E1;-2.954855204E0;6.478815079E-1;1.844484091E0
2.047440267E1;-2.304630995E0;9.912157059E-1;1.598774433E0
2.049213473E1;-1.671376467E0;1.302415848E0;1.668257952E0
2.050984536E1;-1.274245977E0;1.518358231E0;1.875371456E0
2.052758535E1;-1.087016582E0;1.687393188E0;2.024878979E0
2.054530837E1;-9.709186554E-1;1.421698570E0;2.032673359E0
2.056302200E1;-6.088767052E-1;7.476730347E-1;2.458244324E0
2.058076583E1;-7.551193237E-3;1.920766830E-1;4.075953484E0
2.059849240E1;1.259101391E0;-2.207746506E-1;1.528653264E0
2.061621554E1;2.024448872E0;-5.717315674E-1;-1.698474884E0
2.063394338E1;2.214630842E0;-5.437355042E-1;-5.335786343E0
2.065167214E1;2.119096041E0;-2.133607864E-1;-9.041036606E0
2.066937942E1;1.432079196E0;-4.524087906E-1;-9.642288208E0
2.068712411E1;7.374582291E-1;-9.572353363E-1;-6.647392273E0
2.070484890E1;7.544006109E-1;-1.249203682E0;-3.187735081E0
2.072257668E1;2.026354313E0;-9.844236374E-1;-2.553270102E0
2.074030319E1;3.661564589E0;-5.113124847E-1;-2.904336691E0
2.075802358E1;4.847555161E0;-5.812397003E-1;-2.265878439E0
2.077575332E1;5.714269638E0;-5.115880966E-1;-3.597180843E-1
2.079348214E1;6.877963066E0;9.820461273E-2;1.173155427E0
2.081120461E1;8.395476341E0;8.496284485E-2;-3.413767815E0
2.082893307E1;9.335477829E0;-1.508378983E-1;-7.178568840E0
2.084666024E1;8.795955658E0;3.235435486E-2;-8.754420280E0
2.086438748E1;6.304008007E0;-4.561738968E-1;-8.781880379E0
2.088211398E1;4.233451366E0;-6.717872620E-1;-5.981337070E0
2.089984011E1;2.954667807E0;-2.481401443E0;-2.884874582E0
2.091756668E1;2.597772598E0;-5.559871674E0;-2.896134853E-1
2.093529299E1;2.297844648E0;-7.810442924E0;1.786915302E0
2.095300741E1;9.915835857E-1;-1.012923241E1;4.670091152E0
2.097074624E1;-1.197252750E0;-1.118359089E1;7.427950859E0
2.098847207E1;-4.235966682E0;-9.068736076E0;7.865362167E0
2.100619473E1;-6.597638130E0;-4.061076164E0;3.264676332E0
2.102392477E1;-7.535898209E0;-1.328144073E-1;-3.063475370E0
2.104164248E1;-7.187509537E0;2.101278782E0;-3.463695288E0
2.105937924E1;-6.758367538E0;2.711360455E0;8.702619076E-1
2.107710262E1;-6.149752617E0;3.468469143E0;3.576222897E0
2.109482888E1;-5.191309452E0;4.496512890E0;4.646203995E0
2.111255642E1;-4.234380722E0;5.274450302E0;4.865221024E0
2.113027047E1;-3.180959463E0;5.295898438E0;4.790830612E0
2.114800698E1;-2.514420748E0;4.294363499E0;4.872966766E0
2.116573568E1;-3.254075050E0;3.156147480E0;5.540233612E0
2.118345907E1;-4.263213158E0;2.619361877E0;5.150321484E0
2.120118942E1;-4.843798637E0;2.367289066E0;3.459516287E0
2.121891433E1;-4.209372520E0;1.266589165E0;1.305254459E0
2.123664376E1;-8.770179749E-1;-6.306629181E-1;-9.336699486E0
2.125436721E1;4.460731983E0;-2.163236618E0;-1.873446274E1
2.127209048E1;6.204614639E0;-3.385765076E0;-9.516698837E0
2.128981887E1;6.140780926E0;-3.954726219E0;-2.168774605E-3
2.130754635E1;4.688561916E0;-4.391562462E0;1.091798306E0
2.132527566E1;1.818563461E0;-1.826763153E-2;-2.724867344E0
2.134299923E1;-3.383774757E-1;1.387620926E0;-2.882660866E0
2.136072427E1;-8.099565506E-1;-3.559438705E0;-1.583395004E0
2.137845168E1;-9.792881012E-1;-6.326078415E0;-2.870247602E0
2.139618093E1;-1.419381142E0;-9.711521149E0;-8.637776375E0
2.141390402E1;-1.949407101E0;-8.869731903E0;2.034287930E0
2.143163058E1;-3.378651619E0;-2.789377213E0;4.501973629E0
2.144935232E1;-3.906179428E0;1.744360924E0;4.135231972E0
2.146708035E1;-4.191920757E0;3.878522873E0;3.986127377E0
2.148479702E1;-4.179711342E0;2.246299744E0;4.488345146E0
2.150253640E1;-3.505985975E0;-7.958288193E-1;5.239908218E0
2.152025784E1;-2.032896519E0;-1.175854683E0;5.059991360E0
2.153798977E1;-1.231924772E0;-2.652482986E-1;4.157676697E0
2.155571768E1;-1.413987637E0;3.613271713E-1;3.125796795E0
2.157343960E1;-1.367974043E0;1.284872055E0;2.322490215E0
2.159116793E1;-1.234958887E0;2.121623993E0;1.899939060E0
2.160888265E1;-1.187325716E0;2.314332008E0;1.717815876E0
2.162662307E1;-1.033362865E0;1.757754326E0;1.592849135E0
2.164434713E1;-5.882403851E-1;7.639837265E-1;1.624161959E0
2.166206753E1;1.028797626E-1;-2.003765106E-1;2.144101381E0
2.167979842E1;1.265031576E0;-5.891628265E-1;2.828152180E0
2.169752664E1;3.399527073E0;-4.404382706E-1;-4.485169649E-1
2.171525363E1;5.141817093E0;-4.327678680E-2;-7.257029533E0
2.173297903E1;4.852249146E0;3.992900848E-1;-1.423367500E1
2.175070327E1;3.401252270E0;5.155868530E-1;-1.262264252E1
2.176843118E1;2.424093246E0;2.810583115E-1;-6.670272827E0
2.178615817E1;1.951448441E0;5.584459305E-1;-1.199137449E0
2.180388687E1;2.273216724E0;-2.938671112E-1;-2.117018223E0
2.182160574E1;3.240312576E0;-9.583082199E-1;-3.445609808E0
2.183933663E1;3.884904861E0;-1.218229294E0;-2.851900578E0
2.185705880E1;4.367567062E0;-1.069611549E0;-9.086687565E-1
2.187479061E1;4.555945873E0;-3.886480331E-1;4.093565941E-1
2.189251699E1;4.564117432E0;2.402772903E-1;-5.681846142E-1
2.191024166E1;6.148205757E0;4.273986816E-1;-3.889610767E0
2.192796945E1;7.876012802E0;6.623735428E-1;-5.841852188E0
2.194569601E1;7.815461159E0;1.142872810E0;-6.755187035E0
2.196342117E1;6.329897881E0;8.878135681E-1;-8.805633545E0
2.198114456E1;4.655706406E0;-4.601106644E-1;-6.243504524E0
2.199887533E1;3.833050013E0;-3.619501114E0;-2.609394550E0
2.201660037E1;3.306473494E0;-7.453185081E0;4.834358096E-1
2.203432668E1;2.830095768E0;-1.045537758E1;3.012906790E0
2.205204684E1;8.997159004E-1;-1.279746151E1;4.803871155E0
2.206976834E1;-3.150272369E0;-1.267903328E1;6.043012619E0
2.208750564E1;-5.305948257E0;-7.256318092E0;3.840582848E0
2.210523214E1;-6.403927326E0;-2.427844048E0;3.733953476E0
2.212295339E1;-7.110246658E0;8.330245018E-1;-2.515279293E0
2.214068576E1;-7.343604088E0;2.472291470E0;-2.586246014E0
2.215841110E1;-7.396503925E0;2.962685585E0;8.526359797E-1
2.217613864E1;-6.926993370E0;3.548665047E0;3.602829695E0
2.219386422E1;-5.983697891E0;4.506667137E0;4.688344479E0
2.221159005E1;-4.885034561E0;5.188702106E0;4.889606476E0
2.222931527E1;-4.001807213E0;5.050745010E0;4.800293446E0
2.224703921E1;-3.838851929E0;4.127286434E0;4.674794197E0
2.226475735E1;-4.681055546E0;3.058279514E0;4.370623112E0
2.228249856E1;-5.265226364E0;2.524044037E0;2.936703682E0
2.230022189E1;-3.859493732E0;2.488758564E0;1.797588706E0
2.231794473E1;-1.825932503E0;1.699251175E0;-3.147521019E-1
2.233567520E1;2.685315132E0;-3.440847397E-1;-7.253643990E0
2.235338314E1;7.094433784E0;-3.150897980E0;-1.239698029E1
2.237112832E1;8.071774483E0;-5.879130363E0;-9.252587318E0
2.238885281E1;6.108276367E0;-6.781155586E0;-1.863614559E0
2.240657791E1;9.976439476E-1;-3.654781342E0;-7.599265575E-1
2.242430160E1;-2.600087643E0;1.012281418E0;-3.055287600E0
2.244202761E1;-4.003471375E0;-1.048236847E0;-3.775110722E0
2.245975887E1;-5.270714760E-1;-5.300355911E0;-3.258934736E0
2.247748513E1;2.772720337E0;-4.816596985E0;-3.276777744E0
2.249520584E1;1.552052975E0;-4.750450134E0;-1.605812073E0
2.251293795E1;-2.384031296E0;-3.643342018E0;5.815921783E0
2.253065225E1;-4.028921604E0;-6.267404556E-1;6.320313454E0
2.254839327E1;-4.282823086E0;2.345005035E0;4.676849365E0
2.256611691E1;-4.529865742E0;2.432158947E0;3.488729000E0
2.258384127E1;-4.087269783E0;-4.717512131E-1;2.913378239E0
2.260156960E1;-2.366014242E0;-1.872890472E0;2.279608727E0
2.261928372E1;-6.259841919E-1;-1.229910851E0;1.925266266E0
2.263701840E1;-1.505136490E-3;3.758144379E-2;2.053446293E0
2.265473666E1;-3.407497406E-1;1.062550068E0;2.371106386E0
2.267247805E1;-5.094418526E-1;2.175228596E0;2.729851723E0
2.269020114E1;-5.275554657E-1;2.913288593E0;3.097064495E0
2.270791824E1;-7.467718124E-1;2.658559799E0;4.005635738E0
2.272564578E1;-1.000470877E0;2.013990402E0;6.584906101E0
2.274338040E1;-6.086611748E-1;4.001893997E-1;3.368045092E0
2.276110665E1;1.588311195E-1;-1.165617943E0;5.082662404E-2
2.277883187E1;1.243681192E0;-1.199397087E0;-2.566901922E0
2.279655471E1;2.807906866E0;1.019239426E-1;-7.516335011E0
2.281428561E1;3.746513128E0;1.154382706E0;-1.123580933E1
2.283201461E1;3.235053301E0;8.471622467E-1;-8.909886360E0
2.284973971E1;2.389871120E0;2.624444962E-1;-4.411416054E0
2.286746481E1;1.980541468E0;8.054790497E-1;-6.803531647E-1
2.288519143E1;1.944134235E0;-8.158378601E-1;-2.903029442E0
2.290291702E1;2.338714600E0;-2.606419563E0;-4.578082561E0
2.292064382E1;3.829454422E0;-2.955700874E0;-5.131548882E0
2.293836923E1;5.073084354E0;-2.196365356E0;-3.909791946E0
2.295609518E1;5.046813011E0;-9.232368469E-1;-1.474114656E0
2.297381985E1;4.068534851E0;1.747617722E-1;6.338901520E-1
2.299154922E1;4.404679775E0;-4.535293579E-1;-1.827418089E0
2.300926858E1;6.219244957E0;-1.234087944E0;-4.470727444E0
2.302700369E1;7.178580761E0;-9.669065475E-1;-4.443285465E0
2.304472787E1;6.441224575E0;-3.197460175E-1;-5.351108551E0
2.306245162E1;4.601647377E0;2.565317154E-1;-6.657216072E0
2.308018118E1;2.660471916E0;-1.031167030E0;-5.079946995E0
2.309790481E1;2.102390051E0;-3.193022728E0;-1.325923920E0
2.311563455E1;1.707617998E0;-5.486207008E0;1.188727021E0
2.313335977E1;7.818589211E-1;-7.867736816E0;3.093865395E0
2.315108285E1;-7.242243290E-1;-9.626187325E0;5.445280552E0
2.316881142E1;-2.835915089E0;-8.987865448E0;6.574930191E0
2.318653854E1;-4.334917545E0;-4.660449028E0;4.920541763E0
2.320426803E1;-4.688575268E0;-6.743850708E-1;1.436616421E0
2.322199258E1;-5.313023567E0;1.602084160E0;-1.737850666E0
2.323971621E1;-5.435934067E0;2.752943039E0;-1.726187944E0
2.325744406E1;-5.564005852E0;3.154679298E0;1.019746542E0
2.327517202E1;-4.969902992E0;3.604205132E0;3.506776810E0
2.329289993E1;-4.093084812E0;4.008737087E0;4.235801697E0
2.331062332E1;-2.978119612E0;4.188580036E0;3.683491230E0
2.332834658E1;-2.894757748E0;3.765155315E0;3.708544016E0
2.334608206E1;-4.718645096E0;2.888951778E0;2.870240211E0
2.336380294E1;-6.300968170E0;2.979127884E0;2.004212618E0
2.338151705E1;-6.539144516E0;3.349223614E0;6.760181189E-1
2.339925344E1;-5.627983093E0;3.094868183E0;-2.747416496E-2
2.341698117E1;-2.928681135E0;1.843441963E0;-9.120566845E-1
2.343470870E1;7.356467247E-1;-1.100111008E-1;-4.382047176E0
2.345241940E1;6.568732262E0;-1.841615677E0;-8.338274002E0
2.347015524E1;1.130000496E1;-6.430677414E0;-7.971908569E0
2.348788754E1;1.070824051E1;-8.856348038E0;-7.500780106E0
2.350561331E1;8.781242371E0;-4.005885124E0;-8.345764160E0
2.352334054E1;4.961315632E0;6.006727219E-1;-2.122921944E0
2.354106155E1;2.351811886E0;-2.058653831E0;3.544978619E0
2.355879220E1;1.326409340E0;-4.687730789E0;5.017313957E0
2.357651827E1;-1.864962578E-1;-4.886573792E0;2.634968519E0
2.359424484E1;-4.219440460E0;-2.897430420E0;2.423910856E0
2.361197091E1;-6.869522572E0;1.195163727E-1;1.531239748E0
2.362969540E1;-7.466283798E0;2.088335514E0;-1.004661083E0
2.364742379E1;-7.420853615E0;6.399383545E-1;1.166455150E0
2.366513558E1;-6.709599495E0;-1.952445984E0;2.311457872E0
2.368287710E1;-5.663342953E0;-3.540114403E0;2.523954630E0
2.370060281E1;-4.136532307E0;-1.843974113E0;1.725567222E0
2.371832913E1;-3.010545969E0;2.877616882E-1;1.149900198E0
2.373605081E1;-2.388316631E0;8.885068893E-1;9.380217195E-1
2.375377078E1;-1.878134727E0;7.312440872E-1;9.768880606E-1
2.377150533E1;-1.174367189E0;6.974906921E-1;1.075336695E0
2.378923458E1;-5.454936028E-1;8.617734909E-1;1.229883909E0
2.380695651E1;-2.108559608E-1;1.001749992E0;1.430486798E0
2.382468813E1;2.643170357E-1;9.619884491E-1;1.642582417E0
2.384240866E1;1.221255302E0;8.151845932E-1;2.066864491E0
2.386013967E1;2.847115993E0;7.855520248E-1;-4.195173085E-1
2.387786434E1;3.657332420E0;8.456134796E-1;-4.489037037E0
2.389559188E1;3.306483984E0;8.038969040E-1;-6.734429359E0
2.391331881E1;2.521470070E0;8.903865814E-1;-6.007175446E0
2.393104031E1;2.185213566E0;8.273305893E-1;-3.805744886E0
2.394877181E1;1.930702686E0;5.526657104E-1;-1.447679758E0
2.396649752E1;1.980783224E0;6.076231003E-1;-4.483878613E-1
2.398422720E1;1.974047899E0;6.693725586E-1;-1.204800844E0
2.400194930E1;1.779812336E0;1.882486343E-1;-2.195904493E0
2.401967813E1;1.804304719E0;-1.083020210E0;-3.477219343E0
2.403740310E1;2.295078278E0;-1.954012871E0;-4.201926231E0
2.405512789E1;2.619270325E0;-1.061756134E0;-3.241587162E0
2.407285500E1;2.826755047E0;6.265449524E-2;-1.565924883E0
2.409058230E1;4.321528912E0;5.392541885E-1;-2.398611069E0
2.410830538E1;6.570446014E0;6.016302109E-1;-5.835839272E0
2.412603146E1;8.400474548E0;3.360490799E-1;-7.419019699E0
2.414375637E1;8.702461243E0;7.186613083E-1;-5.135459900E0
2.416148757E1;7.483754635E0;8.662595749E-1;-3.419826746E0
2.417921359E1;6.140022755E0;7.537631989E-1;-2.977895498E0
2.419694137E1;4.435368538E0;-1.001019478E0;-2.321470976E0
2.421466671E1;3.236046791E0;-4.473595619E0;-1.045053482E0
2.423239279E1;2.368012190E0;-7.934750557E0;1.255239367E0
2.425011910E1;1.137027502E0;-1.059847164E1;4.446334839E0
2.426784445E1;-1.192097187E0;-1.216627598E1;7.019116402E0
2.428556912E1;-3.564437866E0;-9.158782005E0;6.652883530E0
2.430329714E1;-5.837807655E0;-4.334152222E0;2.253286839E0
2.432101272E1;-7.464356422E0;-6.338520050E-1;-4.141745090E0
2.433875283E1;-7.926695824E0;6.190505028E-1;-2.633122206E0
2.435647628E1;-7.861883163E0;1.042145252E0;1.703183413E0
2.437420095E1;-7.201196194E0;2.163434982E0;3.287251949E0
2.439192965E1;-6.052425861E0;3.591983795E0;3.387431860E0
2.440964791E1;-4.838966370E0;4.429905891E0;3.534183979E0
2.442738693E1;-3.698020935E0;4.523782253E0;4.113558769E0
2.444510433E1;-2.520133495E0;3.627868652E0;4.053919792E0
2.446283407E1;-1.901382446E0;2.444084167E0;4.154424667E0
2.448056173E1;-2.205424309E0;1.745002747E0;4.075780869E0
2.449828488E1;-3.371199608E0;1.818058491E0;3.126976490E0
2.451601827E1;-3.703755379E0;2.209899902E0;1.941795588E0
2.453374020E1;-2.785984039E0;1.501367092E0;1.426407576E0
2.455146462E1;-1.142000914E0;-3.399753571E-2;-8.067200184E-1
2.456919222E1;2.153560638E0;-1.236839294E0;-9.890473366E0
2.458691946E1;6.656159401E0;-2.836564064E0;-1.417344666E1
2.460464840E1;7.601648331E0;-5.046775818E0;-4.977899075E0
2.462237234E1;6.732995987E0;-2.009017944E0;-5.709877014E-1
2.464009591E1;6.195590496E0;1.669273376E0;-2.766097069E0
2.465782400E1;4.577004910E0;-1.771475792E0;-2.370905399E0
2.467554983E1;2.904987335E0;-7.401956558E0;-8.313293457E-1
2.469327810E1;2.065660000E0;-1.033937168E1;-3.121575832E0
2.471099246E1;-1.181847095E0;-6.767828941E0;7.009738684E-1
2.472873031E1;-4.459096909E0;7.473659515E-2;3.719411373E0
2.474644918E1;-5.302711010E0;4.331413746E0;2.312398911E0
2.476418313E1;-5.751249790E0;5.692058086E0;1.889533758E0
2.478190951E1;-6.250272751E0;2.745594978E0;2.544566631E0
2.479963326E1;-5.677885056E0;-9.429473877E-1;3.631173611E0
2.481735714E1;-4.484735489E0;-2.875713348E0;3.911229610E0
2.483508865E1;-3.131696701E0;-2.320167542E0;3.483122349E0
2.485281381E1;-2.851087570E0;-1.354645729E0;2.336736202E0
2.487054080E1;-3.385860443E0;-8.105812073E-1;1.619916558E0
2.488826724E1;-3.094005346E0;3.314952850E-1;1.376055121E0
2.490599386E1;-2.390150070E0;1.049572945E0;1.490203261E0
2.492372115E1;-1.815211058E0;7.575483322E-1;1.563837290E0
2.494144656E1;-1.366810083E0;2.059707642E-1;1.528642416E0
2.495917282E1;-8.830115795E-1;-8.559703827E-2;1.532577157E0
2.497688686E1;-1.666946411E-1;-1.085042953E-1;1.723500133E0
2.499462832E1;1.322949171E0;8.043670654E-2;1.304939985E0
2.501235476E1;3.290946484E0;2.111883163E-1;-4.040657043E0
2.503007870E1;3.722086668E0;3.917064667E-1;-8.015185356E0
2.504780428E1;2.760504007E0;6.222772598E-1;-7.405824184E0
2.506552322E1;1.683188915E0;6.325178146E-1;-4.238427162E0
2.508326058E1;1.380832195E0;7.622766495E-1;-1.885770798E0
2.510098342E1;8.988387585E-1;1.083623886E0;-7.469713688E-2
2.511870455E1;-4.954576492E-3;7.197914124E-1;7.068048716E-1
2.513643649E1;-2.080773115E-1;-5.083122253E-1;-7.072995901E-1
2.515416921E1;6.778411865E-1;-9.292030334E-1;-2.086224079E0
2.517188101E1;1.322380900E0;-9.370317459E-1;-2.710671425E0
2.518961544E1;1.680304646E0;-8.493719101E-1;-2.484788656E0
2.520733877E1;2.275943756E0;-5.783863068E-1;-1.873745918E0
2.522506368E1;2.544508457E0;-7.691574097E-2;-9.243351221E-1
2.524279415E1;2.391793251E0;3.013124466E-1;-4.231940508E-1
2.526052236E1;2.242698431E0;4.174613953E-2;-1.645119905E0
2.527824587E1;2.888906956E0;-8.687877655E-1;-2.894015789E0
2.529597354E1;4.310546875E0;-1.600295067E0;-4.103661537E0
2.531370059E1;5.495598316E0;-1.666284561E0;-4.900389671E0
2.533141110E1;5.597467422E0;-1.566384315E0;-5.552819252E0
2.534915420E1;4.394341469E0;-9.870586395E-1;-5.614294529E0
2.536687893E1;2.683265209E0;-3.746910095E-1;-4.105540276E0
2.538460623E1;1.277181387E0;-4.700164795E-1;-2.129699945E0
2.540233157E1;-4.781925678E-1;-2.203685760E0;-3.882214427E-1
2.542004641E1;-1.368249655E0;-4.170152664E0;1.360253096E0
2.543778390E1;-1.899864674E0;-5.932187080E0;3.317413330E0
2.545550582E1;-2.791407347E0;-6.609143257E0;4.314433575E0
2.547322659E1;-3.360229731E0;-4.426136971E0;3.362027645E0
2.549096340E1;-3.800281525E0;-1.676595688E0;1.986479759E0
2.550868795E1;-4.434022427E0;8.164405823E-2;1.010302305E-1
2.552641574E1;-5.093846321E0;5.563259125E-1;-9.526878595E-1
2.554414358E1;-5.634828568E0;-1.088047028E-2;-6.905868053E-1
2.556186898E1;-5.577796459E0;-2.804641724E-1;-3.006279469E-2
2.557959524E1;-4.754787922E0;-8.308601379E-2;5.545749664E-1
2.559732131E1;-3.700890779E0;1.874208450E-1;1.211622477E0
2.561504299E1;-2.666939259E0;5.155620575E-1;1.963837981E0
2.563277560E1;-1.932604074E0;7.930593491E-1;2.532005310E0
2.565049929E1;-1.537479401E0;9.793095589E-1;2.740017653E0
2.566822982E1;-1.396344900E0;1.054693222E0;2.289056063E0
2.568595339E1;-1.438103199E0;1.437073231E0;1.670360923E0
2.570368093E1;-1.720654249E0;1.953126907E0;1.129916310E0
2.572139431E1;-1.840915203E0;2.236212730E0;6.016511917E-1
2.573913394E1;-1.398609877E0;2.325315475E0;1.364946365E-3
2.575686056E1;-1.063648701E0;2.126548290E0;-6.961439848E-1
2.577458260E1;-1.022001266E0;1.672638893E0;-6.000533104E-1
2.579230660E1;-8.885624409E-1;1.110415936E0;1.333760023E-1
2.581003158E1;-1.330440044E-1;7.542438507E-1;1.366583109E-1
2.582776620E1;1.463171959E0;6.756982803E-1;-1.470425367E0
2.584549160E1;3.338740587E0;6.936035156E-1;-4.409499645E0
2.586321334E1;5.055766106E0;1.030073166E-1;-6.558959007E0
2.588094332E1;5.475463867E0;-1.624261856E0;-7.178436279E0
2.589867031E1;4.529629230E0;-2.721530914E0;-5.206743240E0
2.591639584E1;3.281234741E0;-1.817483902E-1;-1.274976969E0
2.593410848E1;1.404374599E0;2.962046623E0;6.520730257E-1
2.595183706E1;-1.748883724E-1;3.929739952E0;1.055450201E0
2.596956393E1;-9.845833778E-1;3.161514282E0;1.093764901E0
2.598728921E1;-1.362997293E0;2.246940613E0;6.216661930E-1
2.600502352E1;-1.737219572E0;4.317007065E-1;-4.340577126E-2
2.602275369E1;-1.400324106E0;-2.935648918E0;5.790585279E-1
2.604047769E1;-4.875338078E-1;-4.723812103E0;1.420779467E0
2.605820681E1;-2.419784069E-1;-6.875716209E0;1.326563239E0
2.607593215E1;-2.478001833E0;-1.014395046E1;-6.920556068E0
2.609365365E1;-3.829261303E0;-7.046582222E0;-7.736107349E0
2.611137936E1;-3.205061913E0;-1.983604431E-1;-1.001801968E0
2.612911288E1;-2.273397446E0;2.689424515E0;1.001143932E0
2.614683871E1;-1.692197800E0;3.911019325E0;9.325978160E-1
2.616456472E1;-1.486483097E0;3.352691650E0;6.109368801E-1
2.618229122E1;-1.257756233E0;8.808717728E-1;1.009851098E0
2.620002084E1;-1.347885132E-1;-7.812461853E-1;2.261500835E0
2.621774215E1;6.991307735E-1;-1.011384010E0;3.721356153E0
2.623547018E1;5.638618469E-1;-4.136610031E-1;4.590549469E0
2.625319393E1;-2.048704624E-1;3.344154358E-1;4.869419098E0
2.627092306E1;-5.143620968E-1;8.087768555E-1;4.939879894E0
2.628864919E1;-5.475761890E-1;6.946516037E-1;4.348869801E0
2.630637570E1;-5.492272377E-1;2.904682159E-1;3.325245380E0
2.632410110E1;-4.638290405E-1;-1.290130615E-1;2.408174515E0
2.634182754E1;-4.036788940E-1;-3.944635391E-1;1.603324175E0
2.635955496E1;-3.237020969E-1;-4.676065445E-1;8.242655993E-1
2.637726931E1;-3.175134659E-1;-4.557962418E-1;2.188998759E-1
2.639501040E1;-2.340331078E-1;-3.836545944E-1;-2.773223817E-1
2.641273409E1;8.091711998E-2;-3.004541397E-1;-6.752452254E-1
2.643045779E1;1.293001890E0;-6.120719910E-1;-4.354710102E0
2.644818795E1;1.928060293E0;-3.911142349E-1;-7.294740200E0
2.646590072E1;1.398188353E0;-8.317470551E-2;-6.624528408E0
2.648364340E1;1.000410795E0;2.963256836E-1;-4.094712734E0
2.650136239E1;7.497010231E-1;3.878221512E-1;-1.763083696E0
2.651909036E1;7.272202969E-1;2.860822678E-1;3.868204355E-2
2.653681735E1;7.733285427E-1;1.555643082E-1;-2.767622471E-2
2.655454116E1;7.006595135E-1;-1.935195923E-2;-9.738570452E-1
2.657227151E1;8.228132725E-1;2.019891739E-1;-1.528145075E0
2.658999752E1;9.330182076E-1;5.406503677E-1;-1.631540895E0
2.660772079E1;9.701404572E-1;7.040004730E-1;-1.278278112E0
2.662544924E1;9.027131796E-1;8.075408936E-1;-8.570945859E-1
2.664316506E1;8.285323381E-1;8.111801147E-1;-6.541615725E-1
2.666090597E1;8.344110250E-1;6.817560196E-1;-6.914223433E-1
2.667862960E1;9.558185339E-1;6.620311737E-1;-6.672046185E-1
2.669635330E1;1.117026687E0;8.759860992E-1;-6.534526944E-1
2.671408273E1;1.174305320E0;1.061740875E0;-5.418469906E-1
2.673180758E1;1.223948240E0;9.081306458E-1;-3.922977149E-1
2.674953762E1;1.993163347E0;1.673812866E-1;-5.336929560E-1
2.676725686E1;3.053281307E0;-1.046578407E0;-1.082547545E0
2.678498495E1;3.956786633E0;-2.460536003E0;-1.543431640E0
2.680271542E1;4.439639091E0;-3.393730164E0;-1.620122194E0
2.682044186E1;2.806469440E0;-3.456594467E0;-1.086255550E0
2.683816702E1;3.912614584E-1;-2.754865646E0;-5.674083233E-1
2.685589065E1;-1.314860344E0;-1.558032990E0;-1.392468452E0
2.687361331E1;-3.002187252E0;-6.808242798E-1;-3.512892008E0
2.689134280E1;-4.921879292E0;-4.346752167E-1;-5.990861893E0
2.690906588E1;-5.226291656E0;-2.501602173E-1;-5.732477188E0
2.692679977E1;-4.214831352E0;-1.564979553E-3;-1.828674555E0
2.694452487E1;-2.654175758E0;-9.246921539E-2;1.327562571E0
2.696225143E1;-1.582454920E0;-1.290073395E0;3.185065746E0
2.697997793E1;-9.814349413E-1;-2.423116684E0;3.890956402E0
2.699770431E1;-7.469925880E-1;-2.142261505E0;4.074333191E0
2.701543014E1;-9.626646042E-1;-1.110650063E0;3.797766447E0
2.703315695E1;-1.499326944E0;-1.972160339E-1;3.322725058E0
2.705088332E1;-1.592591882E0;5.885763168E-1;2.835301399E0
2.706860501E1;-1.433855891E0;1.006096840E0;2.161576271E0
2.708633322E1;-1.010323524E0;9.949216843E-1;8.221935630E-1
2.710405880E1;-6.680119038E-1;7.768554688E-1;-8.003231287E-1
2.712179061E1;2.863597870E-2;6.048717499E-1;-3.421971798E0
2.713951443E1;3.168642521E-1;7.407388687E-1;-2.888244152E0
2.715724148E1;-2.727828026E-1;9.860916138E-1;-1.523272753E0
2.717496542E1;-9.498128891E-1;8.850898743E-1;-8.366543055E-1
2.719269576E1;-1.152883649E0;1.064990044E0;2.429982424E-1
2.721041073E1;-1.069379926E0;1.066868782E0;9.128736258E-1
2.722815023E1;-7.736599445E-1;1.008057594E0;1.286168337E0
2.724587356E1;-2.401543856E-1;1.168945312E0;1.372134089E0
2.726360000E1;7.492752075E-1;1.443830490E0;1.098684072E0
2.728132198E1;1.895609379E0;1.689588070E0;3.976142406E-1
2.729904080E1;2.906868935E0;1.901543617E0;-7.273164988E-1
2.731678250E1;3.346205950E0;1.954127312E0;-2.170622826E0
2.733450546E1;2.836545944E0;1.406618118E0;-3.300258636E0
2.735223184E1;2.141402006E0;-1.059589386E-1;-2.857135534E0
2.736995803E1;1.676348090E0;-1.944425583E0;-1.290460110E0
2.738768545E1;1.185590863E0;-3.507616043E0;2.452112883E-1
2.740541091E1;4.064860344E-1;-3.365326881E0;9.545308352E-1
2.742313748E1;-3.791882992E-1;-1.551160812E0;4.108084738E-2
2.744085879E1;-7.915388346E-1;3.484420776E-1;-1.538414240E0
2.745858987E1;-1.301082015E0;1.429926872E0;-2.929539680E0
2.747631930E1;-1.656123996E0;1.284048080E0;-3.084596157E0
2.749403927E1;-1.048624158E0;5.275764465E-1;-1.231174469E0
2.751176901E1;-4.393074512E-1;5.442142487E-2;3.816298246E-1
2.752949557E1;-1.805319786E-1;-1.382207870E-1;1.232898116E0
2.754721896E1;-7.923674583E-2;-7.453346252E-2;1.622020960E0
2.756494857E1;-1.117703915E-1;5.297565460E-2;1.683049202E0
2.758267562E1;-1.766397953E-1;9.408855438E-2;1.457153320E0
2.760039504E1;-1.742646694E-1;8.988380432E-3;1.078320146E0
2.761812741E1;-1.812844276E-1;-2.398071289E-1;6.719216108E-1
2.763585287E1;-2.428354025E-1;-4.565010071E-1;2.820754349E-1
2.765357778E1;-4.256365299E-1;-4.717893600E-1;-1.372575760E-1
2.767130227E1;-7.493758202E-1;-2.550420761E-1;-5.672455430E-1
2.768902712E1;-9.898585081E-1;-4.422092438E-2;-9.402917624E-1
2.770675930E1;-1.006494522E0;3.182792664E-2;-1.200392246E0
2.772448556E1;-7.610583305E-1;-1.043357849E-1;-1.526779652E0
2.774220754E1;-3.241639137E-1;-3.282451630E-1;-1.641733408E0
2.775993850E1;1.151168346E-1;-2.882337570E-1;-1.553863049E0
2.777766397E1;3.974020481E-1;-8.481502533E-2;-1.228201389E0
2.779539205E1;4.985401630E-1;1.123390198E-1;-7.522120476E-1
2.781311770E1;5.816018581E-1;2.590293884E-1;-2.066453546E-1
2.783084084E1;6.275329590E-1;2.278490067E-1;3.085597754E-1
2.784857034E1;6.170818806E-1;1.679735184E-1;6.659972668E-1
2.786628762E1;4.863264561E-1;1.514625549E-1;7.538672090E-1
2.788402279E1;3.010835648E-1;1.597023010E-1;6.829895973E-1
2.790174954E1;1.747741699E-1;1.318492889E-1;5.077483654E-1
2.791947176E1;4.851508141E-2;8.722400665E-2;2.704144418E-1
2.793720187E1;-1.241207123E-1;-1.188278198E-3;7.834333181E-2
2.795491726E1;-2.898390293E-1;-3.528976440E-2;-9.284669161E-2
2.797265371E1;-4.427108765E-1;-8.329391479E-2;-2.932005525E-1
2.799038137E1;-5.955070257E-1;-1.168203354E-1;-5.230341554E-1
2.800810732E1;-7.049717903E-1;-1.883945465E-1;-7.306113839E-1
2.802583285E1;-6.529983282E-1;-2.494688034E-1;-8.591623306E-1
2.804355520E1;-4.089440107E-1;-2.684059143E-1;-8.433583975E-1
2.806128304E1;-6.698966026E-2;-2.938899994E-1;-7.978092432E-1
2.807901522E1;2.372591496E-1;-2.107543945E-1;-8.275361657E-1
2.809674050E1;3.915677071E-1;7.133483887E-4;-9.276233912E-1
2.811446584E1;3.930423260E-1;1.803321838E-1;-9.626920819E-1
2.813218905E1;3.113169670E-1;2.142772675E-1;-8.458614349E-1
2.814992104E1;2.790801525E-1;1.378526688E-1;-5.990960002E-1
2.816764620E1;2.826485634E-1;5.065822601E-2;-3.972117603E-1
2.818536862E1;2.728567123E-1;5.149936676E-2;-3.375118971E-1
2.820309792E1;2.455768585E-1;1.581058502E-1;-3.420504630E-1
2.822082253E1;1.420996189E-1;1.703910828E-1;-3.195945621E-1
2.823855313E1;8.185076714E-2;1.055669785E-1;-2.615129054E-1
2.825627688E1;6.787300110E-2;7.343292236E-4;-2.117267251E-1
2.827400240E1;2.546668053E-2;-6.610965729E-2;-2.542752326E-1
2.829172921E1;-4.465961456E-2;-6.616878510E-2;-3.630109131E-1
2.830945626E1;-7.170653343E-2;-3.654575348E-2;-4.824868143E-1
2.832718234E1;-9.475302696E-2;-4.947757721E-2;-5.724806786E-1
2.834489694E1;1.515388489E-3;2.251529694E-2;-6.435058117E-1
2.836263473E1;1.511545181E-1;8.664226532E-2;-6.746198535E-1
2.838036428E1;3.108804226E-1;1.112632751E-1;-6.703234315E-1
2.839808792E1;3.437938690E-1;1.098318100E-1;-6.187677383E-1
2.841580831E1;2.683293819E-1;1.454706192E-1;-5.180782080E-1
2.843354031E1;1.229045391E-1;1.420040131E-1;-4.234957099E-1
2.845126248E1;2.876257896E-2;3.329372406E-2;-3.782926798E-1
2.846899380E1;-7.117509842E-3;-3.144264221E-2;-3.708752990E-1
2.848672073E1;1.393556595E-3;-4.542160034E-2;-3.801389635E-1
2.850444576E1;-1.609539986E-2;-1.956653595E-2;-3.709280789E-1
2.852217233E1;1.724243164E-3;3.956794739E-2;-3.367331028E-1
2.853989871E1;8.631610870E-2;4.029560089E-2;-3.232123852E-1
2.855762527E1;1.603677273E-1;4.642295837E-2;-4.433247447E-1
2.857534890E1;1.110336781E-1;4.825592041E-2;-6.415017247E-1
2.859308200E1;4.748439789E-2;2.385711670E-2;-7.941091657E-1
2.861079226E1;-1.019382477E-2;-3.601074219E-3;-8.245202303E-1
2.862853268E1;-2.130937576E-2;-2.578258514E-2;-7.327750921E-1
2.864625656E1;5.664062500E-2;-1.267719269E-2;-6.083472967E-1
2.866398238E1;1.427540779E-1;6.089496613E-2;-5.486112833E-1
2.868171066E1;1.691386700E-1;6.646442413E-2;-5.479205251E-1
2.869942916E1;2.272713184E-1;3.526401520E-2;-5.076439977E-1
2.871715798E1;2.548112869E-1;-6.852149963E-3;-4.850771129E-1
2.873488864E1;2.051370144E-1;3.393268585E-2;-4.733403921E-1
2.875261410E1;1.203515530E-1;9.405231476E-2;-5.386230350E-1
2.877034274E1;5.245089531E-2;6.661033630E-2;-5.584643483E-1
2.878806265E1;-1.279115677E-3;2.554702759E-2;-5.391494036E-1
2.880579452E1;-3.273582458E-2;2.477264404E-2;-4.756857455E-1
2.882352078E1;-5.413985252E-2;-3.088283539E-2;-4.216000736E-1
2.884124209E1;-5.921268463E-2;-3.525447845E-2;-3.979506493E-1
2.885897323E1;-8.122944832E-2;-5.118370056E-3;-4.172203243E-1
2.887670089E1;-1.057631969E-1;4.440307617E-3;-4.407528639E-1
2.889442581E1;-9.341764450E-2;-1.682186127E-2;-4.573272169E-1
2.891215231E1;-8.603835106E-2;-1.162624359E-2;-4.503955841E-1
2.892987832E1;-1.147885323E-1;-7.447242737E-3;-4.837046862E-1
2.894760690E1;-1.052508354E-1;2.768611908E-2;-5.120068192E-1
2.896531985E1;-2.731847763E-2;4.824447632E-2;-4.846641421E-1
2.898305587E1;7.317972183E-2;6.881237030E-2;-4.179546535E-1
2.900078408E1;1.810259819E-1;1.018152237E-1;-3.766818345E-1
2.901851077E1;2.141826153E-1;1.032600403E-1;-3.966451585E-1
2.903623709E1;2.020645142E-1;5.648517609E-2;-4.797169566E-1
2.905396316E1;1.834604740E-1;6.896972656E-3;-5.615375042E-1
2.907169070E1;1.585097313E-1;-4.044628143E-2;-6.315073967E-1
2.908942898E1;9.969353676E-2;-3.468322754E-2;-6.740565300E-1
2.910714236E1;2.619981766E-3;-3.376770020E-2;-6.765161753E-1
2.912486892E1;-6.995964050E-2;-1.423454285E-2;-6.278862357E-1
2.914259609E1;-9.943580627E-2;9.250640869E-5;-5.746741295E-1
2.916032180E1;-8.730459213E-2;-1.532268524E-2;-4.866184592E-1
2.917803256E1;-6.918549538E-2;-4.409790039E-3;-4.370767474E-1
2.919576290E1;-1.381409168E-1;1.946449280E-2;-4.489125907E-1
2.921349166E1;-1.221334934E-1;3.323173523E-2;-4.596083164E-1
2.923122262E1;-5.954241753E-2;2.614688873E-2;-4.727191627E-1
2.924895217E1;2.068281174E-3;-2.413558960E-2;-4.905538261E-1
2.926667184E1;4.436683655E-2;-5.845355988E-2;-4.832023382E-1
2.928440866E1;-7.508754730E-3;2.083778381E-3;-5.145742893E-1
2.930213259E1;-1.190025806E-1;4.116725922E-2;-5.630022883E-1
2.931985616E1;-1.212241650E-1;-1.968955994E-2;-5.406666994E-1
2.933758492E1;-9.621524811E-2;-2.596855164E-2;-4.244177639E-1
2.935530471E1;-4.304146767E-2;1.148414612E-2;-3.410910964E-1
2.937303744E1;-3.499984741E-3;1.397705078E-2;-3.294077218E-1
2.939075247E1;6.485700607E-2;6.336879730E-2;-4.183227718E-1
2.940848690E1;1.014931202E-1;7.679653168E-2;-5.279778838E-1
2.942621676E1;1.175279617E-1;6.325435638E-2;-5.565471053E-1
2.944393215E1;8.223557472E-2;4.960823059E-2;-5.719069839E-1
2.946166390E1;-3.763437271E-3;5.832099915E-2;-6.006224155E-1
2.947939627E1;-3.120708466E-2;1.423835754E-3;-6.246472597E-1
2.949712191E1;1.616497040E-1;1.948451996E-2;-5.940470099E-1
2.951484786E1;2.336735725E-1;1.245689392E-2;-5.083920360E-1
2.953256863E1;1.545164585E-1;9.208679199E-2;-3.756082356E-1
2.955030404E1;1.754808426E-2;1.175804138E-1;-2.670876980E-1
2.956802133E1;-4.254698753E-2;7.242870331E-2;-2.575469613E-1
2.958575124E1;-2.844882011E-2;-6.749153137E-3;-3.584327996E-1
2.960348074E1;-2.657818794E-2;-9.985923767E-3;-4.366353154E-1
2.962120199E1;-2.475261688E-2;4.598903656E-2;-4.473191500E-1
2.963893319E1;4.908752441E-2;4.029560089E-2;-4.520362020E-1
2.965665859E1;1.111383438E-1;1.973724365E-2;-5.467354059E-1
2.967438613E1;1.497037411E-1;5.915737152E-2;-7.079840899E-1
2.969210623E1;1.547138691E-1;6.809806824E-2;-8.301022053E-1
2.970983724E1;1.077308655E-1;5.241203308E-2;-7.923349142E-1
2.972756497E1;3.055858612E-2;2.524280548E-2;-5.635970235E-1
2.974529153E1;-1.178860664E-2;1.037979126E-2;-3.317710161E-1
2.976301321E1;-1.099979877E-1;-4.780769348E-3;-2.005603760E-1
2.978074410E1;-1.952111721E-1;-1.210880280E-2;-1.458023190E-1
2.979847042E1;-2.847831249E-1;-5.621814728E-2;-1.562595218E-1
2.981619698E1;-2.754411697E-1;-1.306629181E-2;-1.997965872E-1
2.983392336E1;-2.217214108E-1;2.709388733E-3;-2.776865363E-1
2.985164913E1;-1.273920536E-1;1.891136169E-3;-3.885877430E-1
2.986936453E1;-4.887127876E-2;-1.849079132E-2;-4.786742330E-1
2.988710250E1;-1.727247238E-2;1.522350311E-2;-5.200267434E-1
2.990482766E1;-2.420663834E-3;3.720092773E-2;-5.210681558E-1
2.992255374E1;1.965522766E-2;4.006958008E-2;-5.138819218E-1
2.994028231E1;7.987737656E-2;3.145408630E-2;-5.162254572E-1
2.995800967E1;1.242487431E-1;4.259014130E-2;-5.133379102E-1
2.997573409E1;1.896660328E-1;6.358528137E-2;-4.568457603E-1
2.999346047E1;2.588562965E-1;1.147804260E-1;-3.969391584E-1
3.001118771E1;2.897393703E-1;1.907138824E-1;-3.877061009E-1
3.002891354E1;3.142974377E-1;2.112207413E-1;-3.423410654E-1
3.004664016E1;3.388454914E-1;1.550521851E-1;-3.691556454E-1
3.006435842E1;3.089728355E-1;1.456298828E-1;-4.429773092E-1
3.008209249E1;2.333660126E-1;1.005430222E-1;-5.255692005E-1
3.009981942E1;1.139037609E-1;3.645038605E-2;-5.753333569E-1
3.011754733E1;4.021167755E-2;5.180931091E-2;-5.679522157E-1
3.013525997E1;7.692050934E-2;9.001731873E-2;-5.299414396E-1
3.015299471E1;1.746234894E-1;1.153430939E-1;-4.790492654E-1
3.017072347E1;2.239272594E-1;9.508514404E-2;-4.519622326E-1
3.018843917E1;2.652878761E-1;9.459304810E-2;-4.476233721E-1
3.020617794E1;2.662992477E-1;1.054496765E-1;-4.586426616E-1
3.022390292E1;2.718815804E-1;1.400747299E-1;-4.974397123E-1
3.024162710E1;2.513122559E-1;1.123580933E-1;-5.190773606E-1
3.025935671E1;2.151045799E-1;1.096506119E-1;-5.058160424E-1
3.027708260E1;1.447203159E-1;1.030464172E-1;-4.273317456E-1
3.029480899E1;4.201316833E-2;8.543014526E-2;-3.375292420E-1
3.031253567E1;-5.248761177E-2;5.208206177E-2;-2.454470992E-1
3.033026211E1;-7.092714310E-2;1.700782776E-2;-2.294872105E-1
3.034798922E1;-3.211092949E-2;-1.778125763E-2;-3.039588928E-1
3.036570156E1;2.547860146E-2;1.274299622E-2;-4.344630539E-1
3.038344119E1;1.110148430E-1;7.684803009E-2;-5.831192136E-1
3.040116793E1;1.690640450E-1;9.227466583E-2;-6.592974067E-1
3.041889260E1;1.917004585E-1;9.007644653E-2;-6.164723635E-1
3.043662087E1;2.102217674E-1;1.078147888E-1;-5.126526356E-1
3.045434689E1;1.772737503E-1;9.424495697E-2;-4.547888339E-1
3.047207223E1;1.108360291E-1;3.614616394E-2;-4.628302753E-1
3.048980166E1;7.798218727E-2;8.203983307E-2;-4.637957811E-1
3.050752566E1;1.278643608E-1;1.176605225E-1;-4.034464061E-1
3.052525295E1;1.759674549E-1;8.540153503E-2;-3.346951008E-1
3.054297921E1;1.897823811E-1;6.229972839E-2;-3.118989170E-1
3.056070632E1;1.480493546E-1;8.290386200E-2;-3.743741512E-1
3.057842916E1;5.527472496E-2;9.582614899E-2;-4.810127616E-1
3.059615750E1;-6.016516685E-2;1.104259491E-2;-5.255225301E-1
3.061388473E1;-1.234655380E-1;-5.057716370E-2;-4.524618089E-1
3.063161129E1;-1.631739140E-1;-3.101921082E-2;-3.611900210E-1
3.064933999E1;-5.265402794E-2;7.692718506E-2;-3.644048274E-1
3.066705697E1;1.194996834E-1;1.285991669E-1;-4.799476266E-1
3.068479086E1;2.342252731E-1;1.276550293E-1;-5.303403735E-1
3.070251705E1;2.379586697E-1;1.061620712E-1;-4.866286516E-1
3.072024362E1;1.763944626E-1;5.705642700E-2;-3.380343914E-1
3.073796633E1;1.106712818E-1;5.293750763E-2;-2.230365872E-1
3.075569778E1;1.273131371E-2;9.248352051E-2;-2.088768482E-1
3.077342294E1;-3.799557686E-2;7.831001282E-2;-2.637503743E-1
3.079115035E1;-3.383803368E-2;2.853679657E-2;-3.907649517E-1
3.080887325E1;1.815533638E-2;1.043319702E-2;-4.653858840E-1
3.082660232E1;7.472252846E-2;4.836559296E-2;-4.805261493E-1
3.084431661E1;1.109697819E-1;8.045959473E-2;-4.601980746E-1
3.086204995E1;9.435033798E-2;8.292675018E-2;-4.233550429E-1
3.087976522E1;4.946160316E-2;3.230094910E-2;-3.619528413E-1
3.089750741E1;3.868865967E-2;1.791858673E-2;-2.958791852E-1
3.091523428E1;4.506683350E-2;7.594013214E-2;-2.758575976E-1
3.093295193E1;6.771373749E-2;9.027481079E-2;-3.051083982E-1
3.095069015E1;8.690023422E-2;3.807640076E-2;-3.412570655E-1
3.096841397E1;1.833128929E-2;9.081840515E-3;-3.553223908E-1
3.098613833E1;-6.998372078E-2;2.097988129E-2;-3.272340298E-1
3.100386703E1;-1.153059006E-1;-1.624107361E-3;-3.159092665E-1
3.102159335E1;-9.205698967E-2;-7.126808167E-3;-3.416703343E-1
3.103931814E1;9.882688522E-3;3.279685974E-2;-3.510205746E-1
3.105704122E1;1.511878967E-1;6.446743011E-2;-3.183379173E-1
3.107477273E1;1.722469330E-1;1.234540939E-1;-2.563763261E-1
3.109250076E1;1.568632126E-1;1.317701340E-1;-2.100671381E-1
3.111021389E1;1.223533154E-1;5.896472931E-2;-2.055562437E-1
3.112795303E1;1.410372257E-1;2.714920044E-2;-2.604947388E-1
3.114567990E1;1.576511860E-1;9.745502472E-2;-3.541606367E-1
3.116340182E1;1.323034763E-1;1.040582657E-1;-4.452745318E-1
3.118113272E1;9.569716454E-2;7.657241821E-2;-4.912737608E-1
3.119884500E1;8.445215225E-2;5.521678925E-2;-4.391213655E-1
3.121658523E1;1.024503708E-1;5.677795410E-2;-3.764984012E-1
3.123431130E1;2.378590107E-1;7.022857666E-2;-3.098888993E-1
3.125203219E1;3.687610626E-1;1.067209244E-1;-2.860860229E-1
3.126976248E1;3.733749390E-1;1.612157822E-1;-2.872207463E-1
3.128749069E1;2.399919033E-1;1.689271927E-1;-2.625720203E-1
3.130521731E1;6.153988838E-2;6.793212891E-2;-2.399500906E-1
3.132294076E1;-5.881214142E-2;-4.213142395E-2;-2.625325024E-1
3.134067282E1;-1.655082703E-1;-3.580856323E-2;-3.473475575E-1
3.135839675E1;-1.582946777E-1;-2.080440521E-2;-4.149342179E-1
3.137612325E1;-2.529335022E-2;-8.792114258E-2;-4.501811266E-1
3.139384976E1;7.494211197E-2;-3.572273254E-2;-4.711282253E-1
3.141157614E1;4.352831841E-2;2.943229675E-2;-4.669076502E-1
3.142929275E1;5.249452591E-2;6.394100189E-2;-4.047323465E-1
3.144702499E1;7.787966728E-2;1.155805588E-1;-3.179609776E-1
3.146475875E1;1.147489548E-1;1.044130325E-1;-2.083594501E-1
3.148248214E1;1.163797379E-1;4.990863800E-2;-2.000038028E-1
3.150020870E1;4.961371422E-2;9.897232056E-3;-2.841963172E-1
3.151793826E1;-9.981870651E-3;5.496692657E-2;-3.687545657E-1
3.153566061E1;-3.283858299E-2;1.115198135E-1;-4.161559641E-1
3.155338497E1;-5.005121231E-3;1.417341232E-1;-3.668963313E-1
3.157111386E1;6.824398041E-2;1.571455002E-1;-2.464692593E-1
3.158882339E1;1.458497047E-1;1.280784607E-1;-1.824788600E-1
3.160656826E1;2.346270084E-1;1.125802994E-1;-1.963517666E-1
3.162428646E1;3.733804226E-1;1.356239319E-1;-2.905485630E-1
3.164201663E1;5.093896389E-1;1.879825592E-1;-4.521542788E-1
3.165974758E1;5.044198036E-1;2.010936737E-1;-6.197270155E-1
3.167746713E1;3.803229332E-1;2.218685150E-1;-6.839761734E-1
3.169520004E1;2.954564095E-1;2.240447998E-1;-5.785290003E-1
3.171292239E1;2.868385315E-1;2.413978577E-1;-3.844678700E-1
3.173065334E1;2.681241035E-1;1.822261810E-1;-2.212377489E-1
3.174838009E1;2.806451321E-1;1.472835541E-1;-1.487760395E-1
3.176610085E1;2.358050346E-1;9.356403351E-2;-1.431312263E-1
3.178383621E1;1.353683472E-1;4.308605194E-2;-1.643784344E-1
3.180155990E1;-6.514549255E-3;-8.540153503E-3;-2.046614289E-1
3.181928347E1;-7.950425148E-2;-3.270149231E-3;-2.798525989E-1
3.183701565E1;-1.641869545E-2;-4.879951477E-2;-3.685650826E-1
3.185473904E1;-3.484535217E-2;-7.403469086E-2;-4.178270698E-1
3.187246908E1;-4.399442673E-2;-1.893806458E-2;-3.866000175E-1
3.189019241E1;-3.675293922E-2;-5.883216858E-3;-3.316909671E-1
3.190791665E1;-2.379512787E-2;-2.572059631E-3;-2.786367834E-1
3.192564553E1;-7.088661194E-3;-2.470016479E-2;-2.552372813E-1
3.194337081E1;1.014947891E-3;2.799224854E-2;-2.424519807E-1
3.196109713E1;-3.201603889E-2;5.994415283E-2;-1.993817091E-1
3.197882351E1;-3.029680252E-2;1.978683472E-2;-1.396042705E-1
3.199655178E1;-1.502299309E-2;-3.160190582E-2;-7.064159214E-2
3.201427340E1;-3.619670868E-3;-1.655578613E-2;-2.001492679E-2
3.203200515E1;1.425743103E-4;4.072189331E-2;1.746758819E-3
3.204973098E1;-1.580452919E-2;5.706501007E-2;-4.104937613E-2
3.206745779E1;-1.320886612E-2;9.228706360E-3;-1.113665923E-1
3.208517971E1;-1.807475090E-2;-3.092193604E-2;-2.189766765E-1
3.210291091E1;1.486229897E-2;-5.300331116E-2;-3.306066990E-1
3.212063723E1;1.542878151E-2;-4.703617096E-2;-4.631617665E-1
3.213836404E1;4.176139832E-3;-3.112792969E-3;-5.641382337E-1
3.215609359E1;3.180027008E-2;3.737926483E-2;-5.882734060E-1
3.217381570E1;1.379067898E-1;-1.033687592E-2;-4.551125169E-1
3.219154348E1;1.995589733E-1;-1.075983047E-1;-2.290389240E-1
3.220927053E1;1.550307274E-1;-1.240892410E-1;-5.485603958E-2
3.222699685E1;-3.770613670E-2;-4.120922089E-2;-8.125034720E-2
3.224471005E1;-1.568295956E-1;4.624176025E-2;-3.609293401E-1
3.226245156E1;-1.000659466E-1;-3.016281128E-2;-7.496964335E-1
3.228017648E1;-1.590251923E-4;-2.366952896E-1;-8.394789696E-1
3.229790347E1;-1.564834118E-1;-1.547050476E-1;-6.246386170E-1
3.231562960E1;-2.770113945E-1;3.634643555E-2;-3.959158361E-1
3.233334744E1;-2.770910263E-1;-6.030559540E-2;-3.581076264E-1
3.235108090E1;-1.508595943E-1;-2.286005020E-1;-4.366785586E-1
3.236879928E1;-1.271719933E-1;-2.495975494E-1;-5.218152404E-1
3.238652755E1;-2.048165798E-1;-6.112003326E-2;-6.219300628E-1
3.240426223E1;-1.307375431E-1;1.073265076E-1;-6.991167068E-1
3.242197714E1;1.571040154E-1;1.124086380E-1;-7.524881363E-1
3.243970138E1;4.691641331E-1;1.042318344E-1;-8.193995357E-1
3.245743075E1;6.394805908E-1;1.467609406E-1;-9.521641731E-1
3.247516848E1;6.506178379E-1;1.452894211E-1;-1.114243388E0
3.249289523E1;5.925521851E-1;5.120372772E-2;-1.306036949E0
3.251062136E1;4.525845051E-1;-3.326416016E-2;-1.496011138E0
3.252835134E1;3.066422939E-1;-1.298751831E-1;-1.626320362E0
3.254608059E1;2.486820221E-1;-3.530168533E-1;-1.670519829E0
3.256380227E1;2.926819324E-1;-5.211839676E-1;-1.560184479E0
3.258152816E1;3.009386063E-1;-5.032348633E-1;-1.172135592E0
3.259925448E1;1.612427235E-1;-3.306560516E-1;-6.587932110E-1
3.261697885E1;9.046745300E-2;-1.406192780E-1;-1.659152508E-1
3.263470846E1;6.111741066E-2;1.373691559E-1;4.396655560E-1
3.265243472E1;-2.312636375E-1;3.447027206E-1;1.171182036E0
3.267016061E1;-5.600671768E-1;2.785005569E-1;1.447297573E0
3.268788839E1;-6.164081097E-1;1.140327454E-1;1.169184685E0
3.270561410E1;-1.488232613E-1;1.887531281E-1;6.145598888E-1
3.272334060E1;5.342876911E-1;4.251222610E-1;-1.690360308E-1
3.274106625E1;1.033792257E0;4.486713409E-1;-8.313026428E-1
3.275879354E1;9.559493065E-1;2.572917938E-1;-8.533692360E-1
3.277652029E1;3.294022083E-1;1.379690170E-1;-1.388061047E-1
3.279424685E1;-4.351973534E-1;1.963424683E-1;5.216679573E-1
3.281197286E1;-7.919564247E-1;4.237804413E-1;2.868415117E-1
3.282970059E1;-7.702867985E-1;4.732608795E-1;-4.566767216E-1
3.284742654E1;-6.134519577E-1;4.200468063E-1;-9.140911102E-1
3.286515304E1;-3.994736671E-1;4.076414108E-1;-1.354148030E0
3.288287991E1;-1.180961132E-1;3.537960052E-1;-1.555426955E0
3.290060574E1;-4.091906548E-2;4.244451523E-1;-8.857797384E-1
3.291833157E1;-1.595118046E-1;5.877723694E-1;-3.663027287E-1
3.293605544E1;-1.596369743E-1;6.948709488E-1;-3.744456768E-1
3.295378323E1;-1.458170414E-1;8.199615479E-1;-2.914838791E-1
3.297150930E1;2.999401093E-2;8.375196457E-1;-7.124481201E-1
3.298922714E1;3.025064468E-1;7.308731079E-1;-1.057635307E0
3.300696951E1;5.445506573E-1;6.753244400E-1;-1.156465054E0
3.302469363E1;7.365963459E-1;6.363248825E-1;-9.420847893E-1
3.304241396E1;7.132940292E-1;5.484523773E-1;-8.404135704E-1
3.306014040E1;5.423007011E-1;5.992441177E-1;-7.896289825E-1
3.307786459E1;7.629299164E-2;7.794055939E-1;-9.552905560E-1
3.309560098E1;-2.475237846E-1;1.085550308E0;-9.480748177E-1
3.311332565E1;-7.974529266E-2;1.433287621E0;-8.326220512E-1
3.313104440E1;4.439306259E-2;1.469235420E0;-1.050467730E0
3.314877810E1;3.671689034E-1;9.604787827E-1;-6.607069969E-1
3.316650430E1;1.105093241E0;1.127808571E0;-2.492167950E-1
3.318422988E1;1.367397547E0;1.407369137E0;-4.444618225E-1
3.320195779E1;1.409175158E0;1.402530193E0;-6.034141779E-1
3.321968362E1;1.050732851E0;1.189228535E0;-1.159815192E0
3.323741073E1;4.224331379E-1;1.026679993E0;-1.571110606E0
3.325513699E1;-1.524658203E-1;1.010514259E0;-1.390798092E0
3.327286746E1;-5.826075077E-1;8.503971100E-1;-1.245267987E0
3.329059060E1;-7.033071518E-1;7.341365814E-1;-9.328651428E-1
3.330831710E1;-5.796186924E-1;9.782023430E-1;-7.524790764E-1
3.332603884E1;-3.212611675E-1;1.135317326E0;-7.449866533E-1
3.334376998E1;-1.067655087E-1;-1.138562202E0;-7.500673532E-1
3.336149252E1;2.298059464E-1;-3.246536255E0;-1.900519371E0
3.337922341E1;1.354640007E0;-3.411584854E0;-2.797087431E0
3.339694973E1;2.964322567E0;-3.781158447E0;-4.218873978E0
3.341465969E1;3.641457081E0;-3.423631668E0;-2.328989983E0
3.343240408E1;1.382532120E0;-2.400493622E-1;8.440163136E-1
3.345012844E1;-1.036553860E0;2.235501289E0;1.499173164E0
3.346785610E1;-1.777664781E0;3.408494949E0;1.406672478E0
3.348558273E1;-1.782393932E0;2.426875114E0;1.407215357E0
3.350330935E1;-1.352569222E0;6.588268280E-2;1.711041093E0
3.352102993E1;-3.798687458E-1;-1.214085579E0;1.758464336E0
3.353875045E1;5.084013939E-1;-1.757515907E0;2.151787758E0
3.355648886E1;2.457847595E-1;-1.493377686E0;3.049164534E0
3.357421536E1;-7.730445862E-1;-5.846233368E-1;3.022353411E0
3.359194094E1;-9.271848202E-1;3.086929321E-1;7.294433117E-1
3.360966952E1;-7.267713547E-1;5.751609802E-1;-1.666368723E0
3.362739523E1;-3.167150021E-1;5.019760132E-1;-2.239183426E0
3.364512191E1;3.359303474E-1;3.293552399E-1;-8.147040606E-1
3.366284731E1;8.829197884E-1;2.813711166E-1;7.639761567E-1
3.368057467E1;1.152198076E0;5.062408447E-1;1.625272274E0
3.369830148E1;9.304976463E-1;7.672014236E-1;1.883063555E0
3.371602615E1;6.924293041E-1;6.754674911E-1;1.919449806E0
3.373375033E1;5.872712135E-1;3.959960938E-1;1.362980008E0
3.375148379E1;4.142522812E-1;-2.465248108E-2;4.002189636E-2
3.376920779E1;2.573940754E-1;-4.521913528E-1;-1.141309619E0
3.378693148E1;1.080372334E-1;-6.267595291E-1;-1.418815255E0
3.380466006E1;-1.763439178E-2;-3.217830658E-1;-9.882973433E-1
3.382238577E1;1.793584824E-1;2.143430710E-1;-3.989462256E-1
3.384011306E1;3.985965252E-1;5.290241241E-1;-4.445298761E-2
3.385782784E1;4.700617790E-1;4.896459579E-1;1.684297770E-1
3.387556606E1;5.403962135E-1;3.013248444E-1;2.472608685E-1
3.389329330E1;5.954210758E-1;2.565813065E-1;-3.357423842E-2
3.391101931E1;5.702993870E-1;2.981977463E-1;-4.305596948E-1
3.392874966E1;3.128688335E-1;1.923551559E-1;-6.286348104E-1
3.394647341E1;3.629541397E-2;2.523326874E-1;-7.388973236E-1
3.396419845E1;-1.506907940E-1;3.123788834E-1;-8.348909616E-1
3.398192654E1;-1.979517937E-1;1.706399918E-1;-1.078506470E0
3.399965102E1;1.653447151E-1;-7.525444031E-2;-1.263051987E0
3.401737966E1;5.674231052E-1;-1.704463959E-1;-1.277093530E0
3.403510104E1;8.376832008E-1;9.225940704E-2;-1.036390066E0
3.405282858E1;8.916978836E-1;4.744777679E-1;-7.111179829E-1
3.407055911E1;8.981869221E-1;4.958972931E-1;-6.326665282E-1
3.408828396E1;9.019763470E-1;1.367492676E-1;-7.231402397E-1
3.410601620E1;8.120670319E-1;-1.647481918E-1;-7.572522759E-1
3.412373904E1;6.600856781E-1;-2.699890137E-1;-7.538530231E-1
3.414146432E1;6.968122721E-1;-2.581262589E-1;-7.422802448E-1
3.415919112E1;8.155685663E-1;-3.646793365E-1;-5.836501122E-1
3.417691848E1;1.018113136E0;-6.923055649E-1;-3.161463141E-1
3.419464822E1;1.440500736E0;-1.250159264E0;-2.756130099E-1
3.421237179E1;2.330526829E0;-1.466103554E0;-4.782720804E-1
3.423009841E1;2.859898567E0;-1.209237099E0;-1.810640097E-1
3.424782339E1;2.031627655E0;-1.411360741E0;1.016812205E0
3.426555062E1;1.326539159E0;-1.350053787E0;1.787720084E0
3.428327834E1;8.855797052E-1;-1.213229179E0;1.603968382E0
3.430100521E1;2.027167082E-1;-1.126029015E0;9.674087167E-1
3.431873116E1;-9.611976147E-1;-1.345411301E0;-5.668528676E-1
3.433645333E1;-2.648271561E0;-1.768447876E0;-3.804727077E0
3.435418282E1;-4.118566036E0;-1.941434860E0;-7.481568336E0
3.437191110E1;-2.616538525E0;-8.798599243E-1;-4.730649471E0
3.438962570E1;-1.439901590E-1;4.964466095E-1;-8.304224014E-1
3.440735940E1;8.492053747E-1;5.333385468E-1;7.909786105E-1
3.442509084E1;1.004220486E0;3.809242249E-1;3.809806406E-1
3.444281625E1;1.279403090E0;5.035886765E-1;5.181480944E-2
3.446054586E1;1.111781716E0;7.315645218E-1;3.359318674E-1
3.447825930E1;4.421793222E-1;1.085828781E0;1.186227918E0
3.449600021E1;3.786957264E-2;1.682183266E0;1.678995132E0
3.451372244E1;-1.164458990E-1;1.807022572E0;1.609028339E0
3.453144082E1;-6.498444080E-2;1.279444695E0;1.265489340E0
3.454917562E1;2.842364311E-1;6.646661758E-1;7.624378204E-1
3.456689047E1;6.983909607E-1;2.352886200E-1;4.706820250E-1
3.458463070E1;7.966363430E-1;-7.354259491E-2;5.156503916E-1
3.460235671E1;4.971868992E-1;-1.356601715E-2;7.776820064E-1
3.462007906E1;1.999944448E-1;2.870483398E-1;8.265700340E-1
3.463780874E1;5.746376514E-2;3.061103821E-1;3.963475823E-1
3.465553958E1;4.157865047E-2;-5.186557770E-2;-3.527020812E-1
3.467325350E1;3.924938440E-1;-6.645879745E-1;-3.229853153E0
3.469099093E1;4.969979525E-1;-1.028286934E0;-5.760965347E0
3.470870944E1;2.604838610E-1;-7.397499084E-1;-5.616898537E0
3.472644296E1;-1.778301001E-1;-4.121303558E-1;-2.934050322E0
3.474416885E1;-3.652299643E-1;1.401863098E-1;2.256383300E-1
3.476189749E1;-8.373255730E-1;4.236583710E-1;2.215493202E0
3.477962252E1;-1.288906097E0;3.166847229E-1;3.353966713E0
3.479734872E1;-1.428147435E0;4.939365387E-2;3.459585667E0
3.481508175E1;-1.107732773E0;6.605339050E-2;3.285314083E0
3.483279159E1;-6.257891655E-2;4.755258560E-1;2.635575533E0
3.485053011E1;2.240092993E0;9.794816971E-1;1.255229712E-1
3.486825436E1;3.739708424E0;1.030555725E0;-2.839933395E0
3.488598196E1;3.149846792E0;5.112047195E-1;-3.001592636E0
3.490371011E1;2.240639210E0;4.048366547E-1;-1.593385339E0
3.492143557E1;9.056692123E-1;1.235990524E-1;5.570355654E-1
3.493916445E1;-8.473081589E-1;1.617460251E-1;2.203124762E0
3.495688607E1;-2.143921852E0;3.783645630E-1;1.800733805E0
3.497461520E1;-2.364130735E0;4.073991776E-1;6.759258509E-1
3.499234206E1;-1.922863126E0;4.877347946E-1;6.743369102E-1
3.501006399E1;-1.657442212E0;6.277828217E-1;3.078889847E-1
3.502779543E1;-1.572089195E0;8.616580963E-1;-7.097721100E-3
3.504552181E1;-1.605404377E0;1.070717812E0;7.187271118E-2
3.506324978E1;-1.439387321E0;1.417470455E0;1.461920738E-1
3.508097530E1;-9.937577248E-1;1.587955475E0;-1.015663147E-2
3.509870290E1;-4.931247234E-1;1.460661888E0;-1.579446793E-1
3.511642849E1;-7.005882263E-2;1.351570129E0;1.178622246E-2
3.513415969E1;2.808661461E-1;1.383457184E0;-5.606818199E-1
3.515188192E1;3.246064186E-1;1.631324768E0;-1.195446491E0
3.516960824E1;-1.318440437E-1;1.952477932E0;-1.058407068E0
3.518733212E1;-4.770014286E-1;2.210387707E0;-5.308771133E-1
3.520505764E1;-5.265502930E-1;2.370494366E0;-7.531771660E-1
3.522277651E1;-6.246774197E-1;2.138452053E0;-1.240375996E0
3.524051620E1;-1.562981606E-1;1.507768631E0;-9.428358078E-1
3.525824148E1;2.021032810E0;1.256482124E0;2.650303841E-1
3.527596713E1;3.582530975E0;2.230564594E0;5.120457411E-1
3.529369582E1;4.064004421E0;3.043211937E0;-1.491303444E-1
3.531141360E1;3.637327671E0;2.925051212E0;-1.905099511E0
3.532914913E1;2.372321606E0;2.159488678E0;-3.710760117E0
3.534687478E1;8.157632351E-1;9.199638367E-1;-3.976932526E0
3.536459970E1;-5.568809509E-1;-4.262970924E0;-3.158707142E0
3.538232369E1;-1.003913164E0;-1.123349667E1;-4.569830894E0
3.540005013E1;2.875573635E-1;-1.718462753E1;-8.190090179E0
3.541777389E1;-6.615481377E-1;-1.194208336E1;2.362229824E-1
3.543550881E1;-3.536857367E0;-2.299670219E0;4.857215881E0
3.545322091E1;-4.037652969E0;3.878152370E0;3.416157246E0
3.547096096E1;-4.195282459E0;6.596998215E0;2.832464218E0
3.548867752E1;-3.711417437E0;6.080031872E0;3.186114311E0
3.550641574E1;-3.814272165E0;9.151992798E-1;3.907552719E0
3.552414065E1;-2.738761902E0;-2.807956696E0;4.500376225E0
3.554186471E1;1.699762344E-1;-2.215215683E0;4.218162537E0
3.555959451E1;2.181649446E0;-7.288970947E-1;3.471930027E0
3.557730917E1;2.024092436E0;-6.923179626E-1;3.180358410E0
3.559504623E1;6.955335140E-1;-1.816749573E-1;3.481361389E0
3.561277450E1;7.677984238E-2;1.482778549E0;5.597161293E0
3.563050216E1;3.720490932E-1;1.974915981E0;4.761847496E0
3.564822756E1;1.085796952E0;8.490161896E-1;9.229208827E-1
3.566594619E1;1.467539191E0;-9.422874451E-2;-2.680828094E0
3.568367202E1;1.601796269E0;-3.005867004E-1;-6.945068836E0
3.570139584E1;1.563084245E0;2.117929459E-1;-8.880104065E0
3.571913357E1;1.236092687E0;5.360984802E-1;-5.545192719E0
3.573686337E1;1.278490186E0;7.596149445E-1;-1.234535456E0
3.575458767E1;1.908546567E0;1.110496521E0;-4.110601544E-1
3.577231423E1;1.833211422E0;1.032043457E0;-9.829369783E-1
3.579002914E1;1.578233600E0;1.499285698E0;-1.021624207E0
3.580777041E1;1.503930330E0;1.765981674E0;-1.130888104E0
3.582549447E1;1.826297998E0;1.471403122E0;-1.412154078E0
3.584322006E1;2.138106108E0;1.047527313E0;-1.306884408E0
3.586095022E1;2.324061394E0;6.558017731E-1;-8.949534893E-1
3.587867715E1;2.560350418E0;-1.126546860E-1;-1.203273773E0
3.589640389E1;2.967489958E0;-7.935152054E-1;-1.841608286E0
3.591412655E1;2.983994961E0;-9.024076462E-1;-1.783729315E0
3.593185336E1;2.468424320E0;-6.650495529E-1;-8.773432970E-1
3.594957772E1;1.611601830E0;-8.494634628E-1;-1.654922962E-1
3.596729989E1;1.115987420E0;-1.703101158E0;-1.463463068E0
3.598503390E1;2.850122452E0;-2.647646904E0;-5.749070168E0
3.600276126E1;6.675799370E0;-2.136314392E0;-7.736889839E0
3.602048727E1;8.493549347E0;-1.468410492E0;-5.069320679E0
3.603821578E1;8.382228851E0;-1.099294662E0;-2.672509670E0
3.605592318E1;7.546101570E0;6.485118866E-1;-2.992284298E0
3.607365634E1;6.113368511E0;2.218143463E0;-2.946784973E0
3.609139065E1;3.918978930E0;2.326517105E-1;-1.871185899E0
3.610912051E1;2.102232933E0;-3.994123459E0;1.458585858E-1
3.612684719E1;1.426494598E0;-6.852602959E0;2.328434467E0
3.614457424E1;5.304117203E-1;-7.709007263E0;4.781214714E0
3.616230386E1;-1.163766861E0;-7.098897934E0;6.001617908E0
3.618002346E1;-2.892399311E0;-4.824512482E0;5.295684814E0
3.619775204E1;-4.623839855E0;-2.137959480E0;1.958503604E0
3.621548000E1;-5.701911926E0;-4.528274536E-1;-3.076348782E0
3.623320510E1;-5.609487534E0;1.293821335E-1;-1.864476204E0
3.625093783E1;-5.839568138E0;6.905393600E-1;1.675394297E0
3.626866042E1;-5.397217274E0;1.874361515E0;3.040086269E0
3.628638528E1;-4.113063812E0;3.411464691E0;3.017692089E0
3.630411477E1;-2.527638912E0;4.459730148E0;2.265822887E0
