"Time (s)";"Linear Acceleration x (m/s^2)";"Linear Acceleration y (m/s^2)";"Linear Acceleration z (m/s^2)"
1.500713880E-1;-4.070762396E-1;-8.206582069E-2;-1.625108719E-1
1.677832410E-1;-2.529141903E-1;1.778512001E-1;1.499624252E-1
1.855191420E-1;1.108782291E-1;2.619174719E-1;-1.728239059E-1
2.032428970E-1;6.122267246E-2;6.371068954E-2;-3.280868530E-1
2.209665910E-1;-2.778458595E-1;-8.877122402E-2;-7.955265045E-2
2.386906510E-1;-2.334347963E-1;-2.733337879E-2;-5.593299866E-3
2.564148330E-1;8.636200428E-2;-3.656625748E-2;-1.198301315E-1
2.741414560E-1;-1.951792240E-1;-7.072093487E-1;5.727958679E-2
2.918624650E-1;-5.937000513E-1;-9.324853420E-1;-1.632175446E-1
3.095859760E-1;-8.553753495E-1;-9.212203026E-1;-6.523113251E-1
3.273100360E-1;-1.064683199E0;-1.454933643E0;-1.326236725E0
3.450340350E-1;-1.364256620E0;-2.370600224E0;-2.204307079E0
3.627549210E-1;-2.000339270E0;-3.143306017E0;-3.315693855E0
3.804703140E-1;-2.164631128E0;-3.141237736E0;-4.050820827E0
3.982056660E-1;-1.789494634E0;-2.845651627E0;-3.846214294E0
4.159296650E-1;-1.017008305E0;-2.514436960E0;-2.728770256E0
4.336533590E-1;-2.189927101E-1;-2.395903587E0;-1.266806602E0
4.513772960E-1;9.087800980E-1;-2.144263506E0;1.790332794E-2
4.691011730E-1;2.165412903E0;-1.668696642E0;6.746912003E-1
4.868249890E-1;2.286728382E0;-1.687808514E0;6.448121071E-1
5.045488660E-1;1.764285564E0;-1.357339382E0;1.038935661E0
5.222763440E-1;2.079348564E0;-4.342989922E-1;2.635711670E0
5.399966810E-1;2.675592422E0;4.899873734E-1;3.619851589E0
5.577204970E-1;3.121838093E0;1.053327560E0;2.694736958E0
5.754473640E-1;3.122421265E0;1.041849613E0;8.307209015E-1
5.931684950E-1;1.920806885E0;1.281938553E-1;9.614849091E-2
6.108892590E-1;1.437716007E0;3.028712273E-1;3.773846626E-1
6.286162490E-1;1.695720673E0;1.098203182E0;1.087460041E0
6.463301770E-1;1.736954689E0;1.841507912E0;1.315697193E0
6.640660780E-1;8.162536621E-1;2.171823502E0;8.240847588E-1
6.817881240E-1;1.608009338E-1;1.784940243E0;2.085560322E0
6.995109020E-1;-9.102740288E-1;1.018113136E0;1.383286476E0
7.172356950E-1;-1.233174801E0;1.754465103E-1;1.973812580E0
7.349478530E-1;-7.204880714E-1;5.926151276E-1;1.211647272E0
7.526848520E-1;6.807799339E-1;1.664098740E0;9.850113392E-1
7.704073260E-1;8.861093521E-1;2.053555965E0;9.842565060E-1
7.881293720E-1;-6.077480316E-2;1.596291065E0;1.212382555E0
8.058550190E-1;-1.446983814E0;-2.132539749E-1;1.462919474E0
8.235788960E-1;-2.133214474E0;-1.596738338E0;8.893463612E-1
8.413028340E-1;-5.901780128E-1;-7.182545662E-1;-4.075253010E-1
8.590268940E-1;8.074517250E-1;-4.332304001E-2;-8.793601990E-1
8.767511980E-1;2.439451218E-1;-5.313816071E-1;-1.666803360E-1
8.944747090E-1;-5.755391121E-1;-5.377440453E-1;6.548509598E-1
9.121960830E-1;-8.710775375E-1;-1.860485077E-1;1.000605345E0
9.299253930E-1;-5.805430412E-1;2.469191551E-1;9.212856293E-1
9.476462170E-1;-3.910722733E-1;1.099322796E0;6.004581451E-1
9.653670420E-1;-5.157537460E-1;1.349513054E0;1.289677620E-1
9.830940930E-1;-1.259890556E0;7.557711601E-1;2.172977924E-1
1.000818153E0;-1.351360798E0;5.418338776E-1;5.667202473E-1
1.018530373E0;-2.838587761E-1;1.097555637E0;8.785216808E-1
1.036265724E0;4.228134155E-1;1.121636868E0;6.332747936E-1
1.053989845E0;-3.479733467E-1;2.675538063E-1;5.803704262E-2
1.071713661E0;-9.301710129E-1;-9.457826614E-2;-1.258800030E-1
1.089437538E0;-8.490567207E-1;4.744148254E-2;4.154267311E-1
1.107161537E0;-3.032650948E-1;1.810441017E-1;6.231405735E-1
1.124882851E0;-8.157157898E-2;-3.835558891E-1;4.423046112E-1
1.142609230E0;2.363648415E-1;-9.777812958E-1;-4.643788338E-1
1.160333351E0;8.310632706E-1;-7.998604774E-1;-1.355887294E0
1.178054176E0;1.104186535E0;-7.059354782E-1;-1.708632708E0
1.195781105E0;3.841142654E-1;-6.967968941E-1;-1.373498440E0
1.213493263E0;-4.344077110E-1;-5.851535797E-1;-6.244630814E-1
1.231231788E0;-7.508468628E-1;-2.902956009E-1;-1.401939392E-1
1.248952980E0;-5.023241043E-1;-9.906816483E-2;8.251166344E-2
1.266675575E0;-2.441530228E-1;2.237801552E-1;1.408822536E-1
1.284400185E0;-1.568384171E-1;4.098486900E-1;-1.454963684E-1
1.302120888E0;-5.133385658E-1;6.882476807E-2;-4.967710972E-1
1.319848122E0;-1.205675602E0;-4.603743553E-1;-5.516407490E-1
1.337572304E0;-1.771593571E0;-7.264828682E-1;-4.364800453E-1
1.355295815E0;-1.658338547E0;-7.325005531E-1;-6.945238113E-1
1.373020119E0;-8.676218987E-1;2.317762375E-2;-1.550826073E0
1.390740517E0;-2.804203033E-1;1.265723705E0;-2.376294374E0
1.408468178E0;1.853065491E-1;1.289865971E0;-2.246664047E0
1.426195168E0;3.762035370E-1;2.961802483E-1;-9.065110683E-1
1.443912697E0;-2.684259415E-2;-3.564519882E-1;1.312823296E-1
1.461636635E0;1.517896652E-1;-7.057380676E-2;1.594209671E-2
1.479363319E0;2.191610336E0;1.368095398E0;4.391155243E-1
1.497090432E0;4.627962112E0;2.799911499E0;4.864678383E-1
1.514796730E0;4.555002689E0;1.649201393E0;8.240118027E-1
1.532536476E0;2.200385571E0;-5.487575531E-1;6.222249269E-1
1.550259132E0;8.517994881E-1;-1.331753731E0;6.029982567E-1
1.567972633E0;1.500206470E0;4.418659210E-2;8.370835781E-1
1.585705543E0;3.730315208E0;1.998571396E0;2.410585403E0
1.603430702E0;4.327636242E0;2.999358177E0;3.638404846E0
1.621154579E0;3.034198284E0;2.442461967E0;4.935026169E0
1.638878517E0;1.552524090E0;1.740997314E0;4.234972000E0
1.656606849E0;1.891808510E-1;1.551527977E-1;-1.939309239E-1
1.674326515E0;5.569739342E-1;-7.733278275E-1;-2.564162493E0
1.692050392E0;3.299125195E0;1.257612228E0;-1.627299070E0
1.709774269E0;4.788381577E0;3.096224785E0;3.105701506E-1
1.727498329E0;-3.347945213E-1;-8.148241043E-2;1.640309811E0
1.745221962E0;-3.782358646E0;-2.101060867E0;2.715790987E0
1.762946022E0;-3.820179462E0;-7.541942596E-1;3.045832813E-1
1.780669045E0;-2.608192921E0;1.293584824E0;4.994450808E-1
1.798396827E0;-2.040386677E0;2.147079468E0;2.472154498E-1
1.816117775E0;-2.023794651E0;1.782030582E0;5.048412681E-1
1.833843666E0;-3.475216866E0;-5.998840332E-1;-8.291807771E-1
1.851565590E0;-3.642626762E0;-2.801762581E0;-3.329097629E-1
1.869279945E0;-2.124583244E0;-2.248708248E0;-4.526669979E-1
1.887016640E0;-8.934412003E-1;-2.261836052E0;7.284333706E-1
1.904737343E0;5.894489288E-1;-3.087261677E0;-2.169343948E0
1.922459755E0;1.097088814E0;-3.637859344E0;-4.928732872E0
1.940184914E0;5.168142319E-1;-2.699260235E0;7.139635086E-2
1.957908791E0;9.790458679E-1;-3.823432922E-1;3.857389450E0
1.975632973E0;1.531640530E0;1.857669353E0;1.565695167E0
1.993356728E0;6.683750153E-1;5.200300217E-1;-1.191255212E0
2.011080544E0;8.310308456E-1;-7.453165054E-1;-1.087941170E0
2.028804421E0;4.395070076E-1;-1.620913029E0;2.374600172E-1
2.046514443E0;2.451982498E-1;-2.612758636E0;1.461357832E0
2.064252663E0;5.736923218E-1;-5.017547607E-1;-1.852457523E-1
2.081973549E0;9.200086594E-1;2.621331215E0;-1.307212472E0
2.099692421E0;-1.545658112E-1;7.870483398E-1;-4.838721454E-1
2.117424171E0;-1.531295776E-1;2.036037445E0;2.603421807E-1
2.135148048E0;1.135287285E-1;4.191665649E0;1.107000828E0
2.152872170E0;-6.272087097E-1;4.878110409E0;6.222561598E-1
2.170595863E0;-2.584226608E0;3.106932640E0;1.366908550E0
2.188322608E0;-2.181730986E0;2.155957222E0;4.959303141E-2
2.206043556E0;-1.785691738E0;1.687477112E0;-6.393088102E-1
2.223767677E0;-2.702101469E0;-1.320720673E0;-4.937731028E-1
2.241491554E0;-1.770636559E0;-9.410820007E-1;3.224501014E-1
2.259215370E0;6.549906731E-1;8.678712845E-1;1.630123734E0
2.276939308E0;7.249677181E0;-1.001378155E1;5.523745418E-1
2.294663124E0;8.223948479E0;-1.606865120E1;1.641568303E0
2.312387306E0;2.246232986E0;-2.943166733E0;2.539099216E0
2.330110878E0;3.504953980E-1;3.474705696E0;2.032229185E0
2.347834816E0;-1.196440458E-1;2.712128162E0;3.678060770E-1
2.365561561E0;-8.379337788E-1;-2.095502853E0;6.819037199E-1
2.383283119E0;-1.886716008E0;-2.197218895E0;5.938042402E-1
2.401003578E0;-2.746612072E0;7.308006287E-1;-1.369540691E-1
2.418730446E0;-2.698275089E0;2.608087540E0;9.900117517E-1
2.436443520E0;-2.135899782E0;-2.970142365E-1;2.672890186E0
2.454181130E0;-7.378463745E-1;-1.754252434E0;4.096475601E0
2.471902382E0;-3.472561836E-1;-1.154112816E0;3.733035088E0
2.489624550E0;-7.623345852E-1;-9.390268326E-1;2.560353518E0
2.507350014E0;-7.134141922E-1;-9.253129959E-1;1.808128715E0
2.525063514E0;-9.113914967E-1;-8.149480820E-1;-1.694277227E-1
2.542797829E0;-1.695144415E0;-1.402119637E0;-2.399786234E0
2.560522072E0;-1.559202433E0;-1.073478699E0;-2.945791960E0
2.578244301E0;-7.331848145E-2;-7.345771790E-1;-1.149267435E0
2.595969521E0;4.782921076E-1;-1.526389122E0;6.030808687E-1
2.613681496E0;6.175278425E-1;-1.406878471E0;4.313185215E-1
2.631419472E0;5.024372339E-1;-7.685937881E-1;-1.476552963E0
2.649141213E0;2.286949158E-1;-2.826442719E-1;-1.032508373E0
2.666865089E0;1.800141335E-1;5.051898956E-1;-1.535723925E0
2.684588905E0;5.095460415E-1;1.567140579E0;-2.099791288E0
2.702312782E0;3.140643835E-1;2.164953709E0;-1.955958843E0
2.720036720E0;-7.776939869E-2;2.707759380E0;-1.647918463E0
2.737760475E0;-3.216782808E-1;3.097696304E0;-1.322701216E0
2.755487464E0;-5.984672308E-1;3.324174881E0;-8.754812479E-1
2.773208290E0;-4.094163179E-1;3.618315697E0;-5.940687656E-1
2.790929298E0;2.022272348E-1;3.250005245E0;1.050889492E-1
2.808659156E0;8.436737061E-1;2.420065880E0;1.287078619E0
2.826383094E0;1.079774618E0;1.346080780E0;2.614606380E0
2.844103859E0;1.548522830E0;3.944330215E-1;4.879160881E0
2.861827980E0;2.259880304E0;-1.031622887E0;6.467810154E0
2.879548927E0;3.263611794E0;-2.619029045E0;6.837313652E0
2.897275734E0;3.010695934E0;-3.423209190E0;6.071470737E0
2.914998390E0;8.702623844E-1;-2.280841827E0;3.767078161E0
2.932725441E0;-2.091811180E0;-2.839647293E0;1.267530799E0
2.950447365E0;-3.072805405E0;-3.131431580E0;-7.790043354E-1
2.968169471E0;-3.188906193E0;-1.530250549E0;-4.257927418E0
2.985895302E0;-2.283710957E0;2.110955238E0;-6.093965530E0
3.003605324E0;-2.032488823E0;3.690220356E0;-4.238118172E0
3.021346107E0;-2.836713791E0;2.977737427E0;-2.492945433E0
3.039066933E0;-2.912500858E0;1.752400875E0;-1.889002800E0
3.056788002E0;-1.487419605E0;9.146289825E-1;-2.010343313E0
3.074514443E0;2.118813992E-1;-3.681869507E-1;-2.523378372E0
3.092238136E0;2.455210209E0;-1.967288971E0;-2.420509338E0
3.109962502E0;4.077609539E0;-2.068547249E0;-1.514420271E0
3.127686379E0;3.556780338E0;-6.635932922E-1;4.901975393E-2
3.145410133E0;1.908200979E0;3.239641190E-1;-5.293265581E-1
3.163134071E0;6.704447269E-1;6.631031036E-1;-8.758584261E-1
3.180857704E0;6.605368257E-1;6.711797714E-1;-9.922904968E-1
3.198581642E0;7.198567390E-1;2.704296112E-1;-1.209906340E0
3.216290931E0;6.297795177E-1;-7.289600372E-2;2.294194549E-1
3.234018654E0;1.245639563E0;-3.382997513E-1;1.908176184E0
3.251742103E0;1.302702188E0;-1.164093018E-1;1.865243435E0
3.269477272E0;1.410553455E-1;4.992017746E-1;1.130987763E0
3.287201271E0;-9.171048999E-1;6.503744125E-1;9.901980162E-1
3.304925087E0;-4.137555361E-1;7.182445526E-1;-1.230801940E-1
3.322649025E0;4.616944790E-1;6.288900375E-1;-6.959002018E-1
3.340372597E0;1.217831254E0;4.293594360E-1;-8.901830912E-1
3.358096718E0;1.313968420E0;1.853771210E-1;-9.307265282E-4
3.375820595E0;9.242643714E-1;-1.758184433E-1;8.856960535E-1
3.393544472E0;1.042904139E0;-4.268608093E-1;1.430418730E0
3.411271034E0;2.132131100E0;-2.736063004E-1;1.794983625E0
3.428992226E0;3.570410252E0;-6.281890869E-1;2.427284241E0
3.446715859E0;4.462917328E0;-9.365348816E-1;2.698619366E0
3.464440041E0;4.746531487E0;-9.674263000E-1;1.950983167E0
3.482162148E0;4.132695198E0;-1.307384491E0;1.070564151E0
3.499890541E0;2.499365568E0;-1.911630630E0;1.748343468E0
3.517600258E0;6.712393761E-1;-2.691020966E0;3.800230980E0
3.535332435E0;-3.893259764E-1;-3.336241722E0;5.462391376E0
3.553059425E0;1.116529703E-1;-3.393123627E0;5.408303738E0
3.570766762E0;1.505916119E-1;-3.027279854E0;4.443821907E0
3.588507972E0;-1.209360361E-1;-2.955674171E0;5.520282745E0
3.606231056E0;-5.999635458E-1;-3.198473930E0;4.927880287E0
3.623955116E0;-2.447685719E0;-2.694932938E0;-1.896994263E-1
3.641678749E0;-3.897330999E0;-2.141135216E0;-3.728493690E0
3.659405433E0;-3.805416822E0;-9.143705368E-1;-6.017584324E0
3.677129554E0;-3.877029896E0;9.877872467E-2;-4.460130692E0
3.694850441E0;-3.659181595E0;-9.887886047E-2;-7.927494049E-1
3.712574135E0;-2.370307446E0;-7.722043991E-1;3.035327196E-1
3.730298195E0;-1.633583903E0;-8.842887878E-1;-1.281774282E0
3.748021767E0;-7.309473753E-1;-2.952384949E-2;-3.152523518E0
3.765746559E0;-5.884974003E-1;1.005287170E0;-3.015039921E0
3.783470009E0;-7.039165497E-2;1.760506630E0;-1.918459654E0
3.801191445E0;1.523609161E-1;2.085566521E0;-2.034737587E0
3.818917763E0;1.471161842E-1;2.132238865E0;-2.250018120E0
3.836630470E0;-2.177965641E-2;2.222743511E0;-1.994511127E0
3.854364052E0;-5.050517321E-1;2.094765663E0;-1.664999008E0
3.872089150E0;-6.857596636E-1;2.477446079E0;-2.006130934E0
3.889813027E0;-8.567899466E-1;2.887995243E0;-2.353399754E0
3.907536781E0;-1.213002086E0;3.214316368E0;-2.406699181E0
3.925260536E0;-1.399570584E0;3.473440647E0;-2.386397839E0
3.942984474E0;-9.742088318E-1;3.326281071E0;-1.701868653E0
3.960708534E0;-3.871059418E-2;2.748249531E0;-7.214548588E-1
3.978432167E0;6.367794275E-1;1.580211639E0;1.210777044E0
3.996156044E0;1.080006719E0;3.950977325E-2;3.615779400E0
4.013877479E0;9.911199808E-1;-1.716788292E0;6.208241463E0
4.031604164E0;1.171816349E0;-2.852246284E0;8.064392090E0
4.049327675E0;1.892007589E0;-4.190668106E0;8.223446846E0
4.067056007E0;1.528662324E0;-4.003481865E0;5.981261253E0
4.084775185E0;1.390246153E-1;-1.827612877E0;2.535343885E0
4.102496742E0;-8.985793591E-1;1.088351250E0;8.352103233E-1
4.120223244E0;-2.577579975E0;1.673741341E0;-9.762645960E-1
4.137930641E0;-2.947223663E0;1.198520660E-1;-1.608411551E0
4.155671608E0;-3.713083267E0;-1.522150040E0;-2.927879333E0
4.173394814E0;-3.756080389E0;-2.242300034E0;-2.552282095E0
4.191116004E0;-2.602755785E0;-1.432444572E0;-1.566831350E0
4.208842323E0;-3.806635857E0;-2.339420319E-1;-6.598818302E-1
4.226566078E0;-3.268919945E0;1.975045204E0;-3.384857178E0
4.244290199E0;-1.307518244E0;2.911629200E0;-5.459700584E0
4.262014198E0;1.373690367E-2;2.088499069E0;-5.933197021E0
4.279738258E0;1.724667072E0;7.958574295E-1;-3.841904163E0
4.297460243E0;5.511488914E0;-8.235597610E-1;-1.212538600E0
4.315185402E0;7.902571201E0;-3.266844749E0;-7.651114464E-2
4.332909584E0;5.553128242E0;-2.518207550E0;1.036879420E0
4.350633339E0;1.703743815E0;5.595655441E-1;-8.770498037E-1
4.368357643E0;-8.371901512E-1;1.877575874E0;-1.336732984E0
4.386081154E0;-1.567632198E0;1.715620041E0;-5.737579465E-1
4.403802040E0;-2.113540411E0;1.358063698E0;-6.357465386E-1
4.421531227E0;-1.944083214E0;1.116846085E0;1.070117712E0
4.439252724E0;-5.799665451E-1;5.052824020E-1;1.786294281E-1
4.456976418E0;5.386860371E-1;1.243028641E-1;1.050010324E0
4.474700234E0;6.632854939E-1;2.028579712E-1;1.333236575E0
4.492424110E0;1.250412464E0;6.541938782E-1;9.810004234E-1
4.510136574E0;1.538173437E0;8.723421097E-1;1.771746874E0
4.527875099E0;2.272828102E0;6.249532700E-1;3.008077383E0
4.545595741E0;3.314762592E0;-2.720346451E-1;3.993661404E0
4.563319618E0;4.032445431E0;-1.729134560E0;4.248287201E0
4.581043190E0;5.271596909E0;-3.007791519E0;4.488422394E0
4.598767372E0;6.300361633E0;-2.836315155E0;5.223753929E0
4.616491249E0;5.082935333E0;-3.759943008E0;6.322658539E0
4.634214882E0;1.058631897E0;-5.490612984E0;6.153815269E0
4.651938820E0;-2.704107761E0;-6.583328247E0;9.093690872E0
4.669659706E0;-4.353024483E0;-6.944975853E0;4.790038109E0
4.687386635E0;-5.124429703E0;-4.568185806E0;-5.088869572E0
4.705097267E0;-5.740011215E0;-2.829473495E0;-8.762193680E0
4.722833229E0;-5.632245064E0;-1.674461365E0;-6.508772373E0
4.740557900E0;-2.873314619E0;-1.099250793E0;-8.512609005E-1
4.758280068E0;1.707034349E0;-2.806545258E0;7.756614685E-1
4.776005653E0;3.426736355E0;-2.046873093E0;-8.529536724E-1
4.793730324E0;1.356659532E0;-3.286199570E-1;-2.625833035E0
4.811455848E0;-1.174268723E0;1.108533859E0;-3.845941782E0
4.829177284E0;-2.027568579E0;2.037449837E0;-4.118265629E0
4.846900062E0;-1.500949621E0;2.360138893E0;-3.987021446E0
4.864625038E0;5.623698235E-4;2.890541553E0;-4.287107944E0
4.882348793E0;2.453225851E-2;2.783596516E0;-4.374403954E0
4.900075538E0;-9.937390089E-1;2.643058777E0;-3.734807253E0
4.917796730E0;-1.739104986E0;2.759785652E0;-3.424659014E0
4.935519630E0;-2.113695621E0;2.987090111E0;-3.392328501E0
4.953244240E0;-2.177399874E0;3.615277767E0;-3.261963367E0
4.970961769E0;-2.123640060E0;4.230352402E0;-3.071134329E0
4.988691689E0;-1.862896442E0;4.349785328E0;-2.608178854E0
5.006412697E0;-1.327815294E0;3.441903114E0;-1.200372696E0
5.024142189E0;-2.478780150E-1;1.245426178E0;3.761922836E0
5.041863503E0;2.137718678E0;-2.166320801E0;8.334444046E0
5.059572609E0;5.034561634E0;-5.657355309E0;1.049664211E1
5.077311073E0;4.988041878E0;-5.163015366E0;1.084764767E1
5.095035011E0;1.391609430E0;-1.988009453E0;6.414281845E0
5.112758583E0;3.276160657E-1;7.706422806E-1;1.020853758E0
5.130482521E0;1.666827440E0;1.117157936E0;-3.461088896E0
5.148206337E0;1.071396470E0;-9.625225067E-1;-7.216623306E0
5.165930275E0;-3.852903128E0;-2.024251938E0;-6.146634102E0
5.183654091E0;-6.192690372E0;-2.955554962E0;1.223433018E0
5.201380653E0;-4.421347618E0;-8.243913651E-1;5.613707066E0
5.219101601E0;-3.234266520E0;1.687821388E0;-1.436655998E0
5.236825783E0;-1.539600253E0;1.609139919E0;-7.471467495E0
5.254549721E0;2.405463457E-1;3.041229248E-1;-9.384154320E0
5.272272560E0;2.241582155E0;-1.062448502E0;-6.476973534E0
5.289998391E0;4.927431583E0;-2.362887383E0;-2.084909678E0
5.307721046E0;5.307914734E0;-2.391136169E0;3.001558781E-1
5.325445228E0;3.359651089E0;-1.287418365E0;-6.215012074E-1
5.343168556E0;4.364906251E-1;-4.427528381E-1;-2.943653584E0
5.360887306E0;-1.552054405E0;3.046083450E-1;-2.898434639E0
5.378616371E0;-1.582839012E0;7.199993134E-1;-1.894541621E0
5.396340126E0;-1.343412876E0;8.334798813E-1;-9.261206388E-1
5.414061012E0;-1.500663877E0;9.215173721E-1;-1.545410752E-1
5.431787636E0;-8.444542885E-1;1.099329948E0;7.147831917E-1
5.449511269E0;-7.677465677E-3;1.220647812E0;2.629949152E-1
5.467235451E0;2.402576804E-1;5.734195709E-1;-9.138728380E-1
5.484959328E0;-5.131483078E-3;3.681049347E-1;-8.560065925E-2
5.502682534E0;1.982465386E-1;5.298986435E-1;4.308348298E-1
5.520406960E0;9.035792351E-1;4.482069016E-1;4.745549858E-1
5.538131081E0;1.052261949E0;1.934137344E-1;8.804662228E-1
5.555856849E0;7.718601823E-1;9.516334534E-2;1.269619226E0
5.573578224E0;5.204073787E-1;-2.299880981E-1;1.705470204E0
5.591299781E0;9.748652577E-1;-7.640638351E-1;2.312024117E0
5.609025978E0;2.050238132E0;-1.333582878E0;2.952486515E0
5.626749855E0;3.956038713E0;-1.876141548E0;3.280683041E0
5.644473732E0;6.116710186E0;-1.429517746E0;2.330820084E0
5.662197609E0;7.031088352E0;-3.865547180E-1;1.096395969E0
5.679923988E0;4.744713783E0;-6.074066162E-1;3.083352089E0
5.697645119E0;1.257222652E0;-1.988214493E0;8.496150970E0
5.715368996E0;6.422753334E-1;-4.319067955E0;1.067716599E1
5.733092873E0;8.966645598E-1;-5.122263908E0;6.357003689E0
5.750816689E0;6.230156422E-1;-4.067604065E0;1.658039570E0
5.768543189E0;2.880575657E-1;-2.988757133E0;-7.871511579E-2
5.786264259E0;-1.218236446E0;-2.480648994E0;-7.794413567E-1
5.803988075E0;-2.609761715E0;-2.523962021E0;-1.545703173E0
5.821711708E0;-3.605442047E0;-2.966942787E0;-2.064881325E0
5.839423927E0;-2.621582270E0;-2.943980217E0;-4.057726860E-1
5.857162696E0;-1.870409250E0;-3.206317902E0;-8.895965219E-1
5.874883400E0;-1.666973114E0;-2.756501198E0;-1.298898935E0
5.892606178E0;-1.787812471E0;-9.652881622E-1;-1.609938145E0
5.910330788E0;-2.532771111E0;3.783969879E-1;-2.279462576E0
5.928048439E0;-2.719635487E0;1.452351570E0;-3.182953119E0
5.945780556E0;-2.155090809E0;2.352971077E0;-4.727120399E0
5.963502724E0;1.219040871E0;3.121954918E0;-4.642487526E0
5.981225135E0;2.126619816E0;2.790638447E0;-3.614532948E0
5.998950295E0;1.079704165E0;2.586512089E0;-2.109611511E0
6.016665078E0;-2.642187774E-1;3.016982555E0;-2.020558834E0
6.034398109E0;-1.068329930E0;3.782218933E0;-3.523210049E0
6.052121498E0;-1.763946652E0;4.847412109E0;-4.895580292E0
6.069842567E0;-2.074755192E0;5.598477364E0;-4.964097023E0
6.087569191E0;-2.119112253E0;5.511040211E0;-4.647182941E0
6.105292824E0;-1.830319762E0;4.325788021E0;-3.437016964E0
6.123019874E0;-1.568501592E0;1.495494843E0;7.684397697E-1
6.140740517E0;4.906036258E-1;-2.948044777E0;9.260776520E0
6.158461708E0;4.269797325E0;-8.417436600E0;1.384790230E1
6.176188210E0;5.676064491E0;-7.952301025E0;9.525567055E0
6.193911903E0;2.395448923E0;-2.422269821E0;5.182610512E0
6.211638405E0;-1.007941246E0;5.032835007E-1;2.481046438E0
6.229348244E0;-3.477238655E0;-1.120319366E0;-3.560352325E-1
6.247083595E0;-2.550150871E0;-2.297429085E0;-2.736940622E0
6.264807411E0;-3.363420248E0;-1.255894661E0;-8.647139549E0
6.282527015E0;-5.557249069E0;-1.479043961E-1;-5.748030663E0
6.300254738E0;-5.820455551E0;-1.362586975E0;4.269750595E0
6.317978859E0;-4.093671799E0;4.721441269E-1;-9.653415680E-1
6.335706825E0;-2.000631332E0;3.097013474E0;-6.565535545E0
6.353426308E0;-2.577950060E-1;2.932418823E0;-7.970258713E0
6.371150429E0;7.057219744E-1;4.592790604E-1;-6.361920357E0
6.388874123E0;3.435459137E0;-1.461395264E0;-2.616418839E0
6.406597694E0;6.466316700E0;-2.508838654E0;3.803873062E-1
6.424321510E0;6.198952198E0;-2.622744560E0;1.049671173E0
6.442031105E0;3.319063663E0;-8.503160477E-1;3.973305225E-1
6.459757729E0;1.878309250E-1;5.339384079E-1;-1.041544080E0
6.477478859E0;-1.100323796E0;1.611790657E0;-1.572951794E0
6.495211464E0;-1.332944036E0;2.099737644E0;-1.707851887E-2
6.512943397E0;-1.299784422E0;1.622865677E0;9.816833138E-1
6.530664650E0;-5.973792672E-1;1.237382889E0;-8.298472166E-1
6.548386330E0;-3.880335093E-1;5.634756088E-1;-1.361683965E0
6.566112099E0;-7.831348181E-1;4.570531845E-1;1.201188564E0
6.583831093E0;-9.746558666E-1;1.286735535E-1;2.553933144E0
6.601562294E0;-2.607470751E-1;4.180431366E-2;1.708803654E0
6.619283363E0;7.731918097E-1;3.306379318E-1;9.162049294E-1
6.637004188E0;1.163593531E0;8.222332001E-1;5.108776093E-1
6.654731300E0;1.242267609E0;7.526788712E-1;7.518945932E-1
6.672454933E0;1.493659496E0;-2.104473114E-2;1.582028508E0
6.690178810E0;2.058839798E0;-1.071496010E0;2.753606319E0
6.707902626E0;3.127189875E0;-1.950448990E0;3.805697441E0
6.725626198E0;4.945336342E0;-2.079725266E0;3.857480526E0
6.743350136E0;6.617639065E0;-1.672149658E0;3.719129086E0
6.761073830E0;7.022426605E0;-1.398722649E0;3.532682896E0
6.778797951E0;5.198690891E0;-2.427873611E0;4.625547886E0
6.796521584E0;3.160481453E0;-3.722757339E0;5.472933292E0
6.814245644E0;1.893473387E0;-4.744249344E0;5.763135910E0
6.831969277E0;1.258705139E0;-4.338728905E0;6.064474583E0
6.849692909E0;-1.426250935E-1;-3.462190628E0;4.053072929E0
6.867416908E0;-1.438205957E0;-2.619330406E0;1.068219423E0
6.885130714E0;-3.079240322E0;-2.525562286E0;-2.458950043E0
6.902864540E0;-4.314759731E0;-4.037498474E0;-1.735866070E0
6.920588173E0;-3.789625645E0;-4.489629745E0;-2.138461471E-1
6.938309181E0;-2.199933052E0;-4.377996445E0;-1.230563641E0
6.956035927E0;-1.005954266E0;-2.774755478E0;-2.389133215E0
6.973759560E0;-8.310863972E-1;-1.486155510E0;-2.207679510E0
6.991484841E0;-1.218900442E0;-4.275264740E-1;-2.198755026E0
7.009203957E0;-1.279915452E0;9.075345993E-1;-3.233187914E0
7.026930946E0;-1.300556183E0;1.505388260E0;-3.367578268E0
7.044654640E0;1.021966457E0;2.863590240E0;-4.292806625E0
7.062372291E0;1.320357084E0;2.887855530E0;-4.380943775E0
7.080105262E0;-7.478588820E-2;2.867539406E0;-3.952992678E0
7.097826088E0;-1.001427054E0;3.460198402E0;-3.630945683E0
7.115547218E0;-1.410711050E0;3.963429451E0;-4.612803459E0
7.133273781E0;-1.944510102E0;4.644417286E0;-5.628524303E0
7.150988625E0;-2.328940392E0;5.333590031E0;-5.160931110E0
7.168723305E0;-2.905348301E0;5.611313343E0;-4.701322556E0
7.186445229E0;-2.947432518E0;5.114290237E0;-3.791770458E0
7.204168679E0;-2.310692787E0;2.617518425E0;3.612477779E-1
7.221892860E0;-3.214266300E-1;-8.987998962E-1;8.228122711E0
7.239616249E0;3.104719400E0;-6.751832008E0;1.325388908E1
7.257344520E0;4.852851868E0;-8.610216141E0;1.069147873E1
7.275064186E0;1.751707196E0;-3.590650558E0;7.133887291E0
7.292787880E0;-2.638123631E-1;-4.496431351E-1;4.019340515E0
7.310511879E0;-6.614376903E-1;-2.624324799E0;1.352645159E0
7.328235329E0;7.767149806E-1;-6.315408707E0;-4.607694626E0
7.345959389E0;-1.433485389E0;-5.209827423E0;-1.010566616E1
7.363683205E0;-2.436684132E0;2.350216389E0;-6.019819736E0
7.381403847E0;-6.927513599E0;3.906916618E0;2.163448334E-1
7.399130775E0;-7.259855270E0;3.900760651E0;-4.603828430E0
7.416854591E0;-3.558881044E0;2.322012424E0;-8.885546684E0
7.434581336E0;-9.883290529E-1;-1.350166321E0;-7.767725945E0
7.452302101E0;3.526912451E0;-3.976330757E0;-3.986585617E0
7.470025917E0;8.828184128E0;-4.761643410E0;-2.247836590E-1
7.487750160E0;6.852892876E0;-3.462779045E0;5.493569374E-1
7.505457923E0;1.583142996E0;-1.142313957E0;-5.116217136E-1
7.523197243E0;-1.418759108E0;8.747100830E-2;-8.983576298E-1
7.540909279E0;-2.097103357E0;1.220711708E0;-1.575510740E0
7.558645058E0;-8.528113365E-1;1.872367382E0;-9.211872220E-1
7.576368691E0;-1.522759795E-1;1.532113075E0;-4.518615007E-1
7.594092323E0;-9.535320997E-1;8.858966827E-1;-2.090846300E-1
7.611816261E0;-9.872354269E-1;4.193086624E-1;8.341022730E-1
7.629540077E0;-4.490703344E-1;9.047002792E-1;7.969502807E-1
7.647265235E0;-4.987160265E-1;1.248270035E0;1.869596481E0
7.664987587E0;-7.407891750E-2;2.084311485E0;1.507153153E0
7.682707252E0;3.865899742E-1;2.564024925E0;9.419056177E-1
7.700435097E0;4.146645665E-1;2.204612732E0;1.715912819E0
7.718152138E0;7.533963919E-1;1.446184158E0;2.129876375E0
7.735885719E0;1.699255228E0;1.071257591E0;1.088927984E0
7.753609047E0;2.643875122E0;7.988986969E-1;5.350749493E-1
7.771330360E0;3.013529062E0;7.147884369E-2;8.265972733E-1
7.789054237E0;3.027783394E0;-1.252231598E-1;2.692395210E0
7.806763710E0;4.022620678E0;-6.102170944E-1;3.856567383E0
7.824501808E0;5.319752216E0;-6.957454681E-1;1.303307533E0
7.842225624E0;6.351552010E0;-9.855308533E-1;-4.901312590E-1
7.859946266E0;6.137922764E0;-1.335447311E0;8.045127392E-1
7.877673378E0;3.656456470E0;-2.911957741E0;3.429909229E0
7.895397011E0;6.920216084E-1;-6.546313286E0;4.912920475E0
7.913123207E0;-1.246676564E0;-7.130393982E0;5.003737450E0
7.930843422E0;-1.553815603E0;-4.655007362E0;4.089576721E0
7.948568153E0;-2.395457506E0;-3.224434853E0;1.538203955E0
7.966292030E0;-4.400654316E0;-3.855071068E0;-1.178682923E0
7.984015968E0;-4.630594254E0;-4.061240196E0;-3.353308916E0
8.001737159E0;-3.435076952E0;-2.977542877E0;-4.016753197E0
8.019463356E0;-7.592201829E-1;-1.729230881E0;-8.145067096E-1
8.037190284E0;5.427204370E-1;-6.206197739E-1;-9.611391425E-1
8.054911171E0;-1.221466303E0;1.546859741E-3;-3.172638416E0
8.072635048E0;-3.177959681E0;7.979507446E-1;-3.867920637E0
8.090358742E0;-3.938334465E0;1.924222946E0;-2.739547968E0
8.108082558E0;-4.113110542E0;2.245553017E0;-1.279904008E0
8.125806191E0;-3.798933029E0;1.784493446E0;-2.657449245E-1
8.143530373E0;-2.865472078E0;1.829434872E0;-1.223932505E-1
8.161251014E0;-1.788680315E0;1.772916317E0;-5.143512487E-1
8.178977760E0;-6.399097443E-1;1.571041107E0;-1.141630173E0
8.196697853E0;4.317522049E-2;1.502317429E0;-1.680739641E0
8.214427345E0;8.778035641E-2;1.686134338E0;-2.077069759E0
8.232149208E0;5.770635605E-2;2.134952545E0;-2.002555847E0
8.249869056E0;2.044104338E-1;2.444571972E0;-1.349285126E0
8.267596535E0;5.325816274E-1;2.193194389E0;-1.018489838E0
8.285315590E0;4.505559206E-1;1.687659740E0;-5.291469097E-1
8.303046486E0;4.978526235E-1;1.459360123E0;-5.475426912E-1
8.320768105E0;4.542887211E-1;1.165374756E0;-1.021414638E0
8.338488442E0;9.172708988E-1;1.050130844E0;-7.621988058E-1
8.356215675E0;5.354239941E-1;8.972797394E-1;-1.617431641E-2
8.373939247E0;-1.600763917E0;1.481940269E0;1.006516576E0
8.391666053E0;-2.704904079E0;1.621809006E0;1.931161880E0
8.409387001E0;-2.426584244E0;1.226060867E0;2.307100534E0
8.427108070E0;-1.118107438E0;8.251276016E-1;1.780258060E0
8.444834328E0;9.493451118E-1;2.355461121E-1;1.448074579E0
8.462546425E0;2.487719297E0;-4.128808975E-1;1.538048267E0
8.480282326E0;3.082733154E0;-8.219909668E-1;2.056820869E0
8.497987953E0;2.742791653E0;-1.220158577E0;3.356570721E0
8.515731118E0;1.884227753E0;-1.478711128E0;4.179889679E0
8.533453468E0;1.209001780E0;-9.852075577E-1;4.652935505E0
8.551177345E0;-2.011844516E-1;-8.337001801E-1;3.776032448E0
8.568901222E0;-2.130572081E0;-2.212987900E0;1.109990835E0
8.586624855E0;-4.192822933E0;-3.481213570E0;-3.200375795E0
8.604348427E0;-4.747603893E0;-1.533187866E0;-4.924039364E0
8.622072548E0;-4.877047539E0;9.927749634E-1;-1.439255953E0
8.639796242E0;-4.300959110E0;2.738483429E0;2.631054401E0
8.657521340E0;-2.982863665E0;2.220887184E0;7.491673231E-1
8.675243691E0;-9.127092361E-2;1.145970345E0;-2.803960562E0
8.692970314E0;4.259506702E0;-5.917310715E-1;-5.868421555E0
8.710691444E0;9.244652748E0;-1.942632675E0;-6.219483852E0
8.728415077E0;9.144391060E0;-1.825284004E0;-5.355838776E0
8.746138893E0;5.104996204E0;-2.964162827E-1;-1.827888250E0
8.763850868E0;8.846897483E-1;-3.755388260E-1;1.289740324E0
8.781589393E0;-2.241086721E0;-5.705080032E-1;1.234243155E0
8.799310585E0;-2.533943415E0;4.876956940E-1;2.498309463E-1
8.817031471E0;-1.449217319E0;7.536077499E-1;1.815664172E0
8.834757851E0;-1.012492657E0;1.083029747E0;1.173713207E0
8.852484474E0;-1.094955921E0;7.108545303E-1;-1.836992025E0
8.870208839E0;-1.160466194E0;2.711296082E-1;2.482700109E0
8.887929237E0;-9.971701503E-1;9.730339050E-2;4.889742851E0
8.905651527E0;7.389216423E-1;6.424160004E-1;2.457222939E0
8.923376991E0;2.006320953E0;6.541576385E-1;1.391917706E0
8.941088844E0;2.652773142E0;5.713806152E-1;1.593926430E0
8.958823585E0;2.602680683E0;8.061962128E-1;1.923742890E0
8.976548134E0;1.962100744E0;5.747318268E-2;3.149447918E0
8.994269020E0;1.422881961E0;-1.421591759E0;4.785224438E0
9.011995949E0;1.538166523E0;-2.219059944E0;5.555277824E0
9.029718788E0;3.116978884E0;-1.587357521E0;5.996242523E0
9.047445839E0;5.160777092E0;-8.353958130E-1;5.141324520E0
9.065167275E0;6.381827354E0;-4.201812744E-1;4.499549866E0
9.082890846E0;5.846922874E0;-1.843492508E0;6.148228645E0
9.100614540E0;5.365971088E0;-5.792115211E0;8.795490265E0
9.118335976E0;5.015516281E0;-1.026787567E1;7.285678387E0
9.136061256E0;-3.204373121E-1;-1.099243832E1;8.804413080E-1
9.153786232E0;-3.578934669E0;-7.629151344E0;-4.981491089E0
9.171509987E0;-5.543717384E0;-5.258179665E0;-8.271397591E0
9.189233986E0;-4.091198921E0;-2.134363174E0;-5.861276150E0
9.206957802E0;-1.459421396E0;-1.787948608E0;-9.326355457E-1
9.224681435E0;6.879239678E-1;-4.288976669E0;5.154863596E-1
9.242405251E0;1.261265755E0;-2.101705551E0;-3.221042156E-1
9.260128944E0;-3.360599279E-2;2.940607071E-1;-2.597105503E0
9.277853127E0;-9.191402793E-1;1.074809074E0;-2.403312683E0
9.295576759E0;2.438549280E0;3.164278984E0;-3.749535561E0
9.313300575E0;3.000784636E0;2.692830086E0;-4.661322594E0
9.331024574E0;2.288346887E-1;2.307371140E0;-4.629055023E0
9.348748390E0;-1.451266050E0;3.788103580E0;-4.210309505E0
9.366471962E0;-2.717603445E0;5.234239578E0;-4.205058098E0
9.384193702E0;-3.745189905E0;5.970309258E0;-4.677039146E0
9.401919655E0;-3.862805128E0;6.298400402E0;-4.996481419E0
9.419628456E0;-2.921928883E0;5.927686214E0;-4.819090843E0
9.437369728E0;-1.818887234E0;5.090728760E0;-3.931566715E0
9.455091042E0;-1.200717449E0;3.793730736E0;-2.306149483E0
9.472810340E0;-6.720058918E-1;1.673990250E0;2.542233467E-1
9.490538918E0;4.012099206E-1;-1.217123032E0;4.934100628E0
9.508245155E0;3.325987816E0;-3.854001999E0;9.916663170E0
9.525986244E0;6.779575348E0;-5.563838959E0;1.012321854E1
9.543709999E0;7.034409523E0;-4.679536819E0;7.487473011E0
9.561431007E0;3.769709587E0;-2.471909523E0;4.957489967E0
9.579157692E0;1.338722110E0;-5.584716797E-2;2.561983824E0
9.596881386E0;-5.854506493E-1;6.018276215E-1;1.413827419E0
9.614608497E0;-2.987679005E0;-2.588527679E0;-2.634480715E0
9.632329384E0;-7.718281269E0;-6.016458511E0;-7.168894291E0
9.650050087E0;-9.407486916E0;-6.433666229E0;8.278059959E-2
9.667762611E0;-7.158298492E0;-1.562690735E-1;2.329077721E-1
9.685482948E0;-4.434644699E0;3.843427181E0;-7.689201832E0
9.703213600E0;-2.326492548E0;3.463419914E0;-1.197606087E1
9.720948586E0;-1.297717571E0;9.654951096E-1;-1.052595711E1
9.738673377E0;-6.556271315E-1;-1.498113632E0;-7.468814850E0
9.756396034E0;3.183650017E0;-4.113934517E0;-4.618083954E0
9.774122047E0;8.817690849E0;-4.590401649E0;-2.988694668E0
9.791843910E0;9.088777542E0;-3.803898811E0;-2.697131634E0
9.809567421E0;4.548594475E0;-3.902797699E-1;1.279002666E0
9.827291908E0;-3.572652936E-1;2.170763016E-1;3.107250690E0
9.845014931E0;-3.209780693E0;1.261151314E0;2.833669662E0
9.862739052E0;-4.053015709E0;2.033413887E0;1.102706194E0
9.880462990E0;-2.756604195E0;2.246747494E0;8.948307037E-1
9.898186501E0;-7.919085622E-1;2.093140125E0;-3.096237183E-1
9.915910744E0;7.925873399E-1;1.539639473E0;-3.612289190E0
9.933634560E0;4.561504722E-1;1.634234428E0;1.087798953E0
9.951358254E0;-2.134260535E-1;9.753189087E-1;5.348757744E0
9.969082314E0;-1.290624142E-1;6.540155411E-1;4.320850849E0
9.986794350E0;1.119564414E0;8.061523438E-1;1.837280393E0
1.000453245E1;2.834564686E0;5.671958923E-1;1.135184050E0
1.002225370E1;3.960539341E0;-6.797637939E-1;1.677135944E0
1.003997355E1;4.779309273E0;-1.524623871E0;2.713093281E0
1.005770145E1;4.866863251E0;-1.816250801E0;4.271437168E0
1.007541135E1;4.969328880E0;-2.039915085E0;6.221775055E0
1.009315238E1;6.323395729E0;-1.743064880E0;5.019550323E0
1.011087309E1;6.718134880E0;-1.376203537E0;3.886137962E0
1.012859690E1;5.132699013E0;-1.451645851E0;6.865719318E0
1.014632133E1;3.820230961E0;-3.859583855E0;7.497136593E0
1.016403861E1;2.924273252E0;-6.526473999E0;5.484732151E0
1.018176847E1;1.827931404E0;-6.354918480E0;3.913390636E0
1.019949204E1;2.509670734E0;-4.219918251E0;1.680573106E0
1.021721604E1;3.026040792E-1;-4.590284348E0;-3.632637262E0
1.023493998E1;-5.205227852E0;-6.161026955E0;-4.726636887E0
1.025266392E1;-8.351911545E0;-6.784323692E0;-2.302220106E0
1.027038780E1;-4.933433056E0;-3.758529663E0;-6.656125784E-1
1.028811137E1;-2.498210669E0;-3.399572372E0;2.744066715E-2
1.030583701E1;-7.075425386E-1;-1.437675476E0;-1.127488732E0
1.032355930E1;-5.753912926E-1;-1.728448868E-1;-3.207427263E0
1.034128300E1;4.212755263E-1;1.379860878E0;-2.372948885E0
1.035900718E1;6.222385764E-1;2.109879494E0;-2.877079248E0
1.037673075E1;2.963641167E0;3.289442062E0;-4.147199631E0
1.039445463E1;2.372841358E0;3.143216610E0;-5.337225437E0
1.041217887E1;3.780704737E-1;3.131850243E0;-4.900636673E0
1.042990238E1;-4.145675600E-1;3.923875332E0;-4.207376003E0
1.044762626E1;-9.861376286E-1;4.326627254E0;-4.600496769E0
1.046534745E1;-1.525551915E0;4.890971184E0;-6.332459927E0
1.048307432E1;-1.610111237E0;5.825110435E0;-6.717191696E0
1.050079783E1;-1.806871176E0;5.529336929E0;-5.536504745E0
1.051852195E1;-2.267133951E0;4.469964504E0;-4.008548260E0
1.053624570E1;-2.124638319E0;2.505404472E0;-3.908174038E-1
1.055395347E1;-1.330944538E0;-1.112052917E0;8.197673798E0
1.057169376E1;1.090059042E0;-6.295528412E0;1.447469234E1
1.058941752E1;3.615511656E0;-6.732214928E0;9.000332832E0
1.060714103E1;4.604078829E-1;-3.248012543E0;6.692430496E0
1.062486533E1;-2.781883001E0;-3.888139725E-1;3.937391043E0
1.064257749E1;-2.843091965E0;9.950685501E-1;1.641099215E0
1.066031565E1;-3.535615683E0;-3.092252731E0;2.231520414E0
1.067803690E1;-5.200532913E0;-6.136756897E0;-1.916722775E0
1.069576084E1;-5.514816284E0;-3.849401474E0;-6.564725876E0
1.071348466E1;-3.555882931E0;-1.170331001E0;-3.064321280E0
1.073120792E1;-2.486675739E0;1.592264175E-1;-5.918735027E0
1.074893241E1;-1.102280378E0;2.161686897E0;-9.523407936E0
1.076665635E1;1.563915014E-1;1.867376804E0;-1.053157043E1
1.078438016E1;3.155550659E-1;-1.031980515E-1;-8.587102890E0
1.080210429E1;1.087678075E0;-2.537189484E0;-5.450169086E0
1.081982792E1;4.749008179E0;-3.255060196E0;-2.383434534E0
1.083755204E1;7.731972218E0;-2.701249123E0;-1.888302565E-1
1.085527598E1;5.879133224E0;-1.101713181E0;2.548260450E0
1.087299979E1;1.916575432E0;6.124830246E-1;3.486803532E0
1.089072373E1;-1.414283395E0;1.381664276E0;1.121447563E0
1.090845029E1;-3.145739317E0;2.109452248E0;-6.795092672E-2
1.092617149E1;-2.864762306E0;2.728864670E0;6.109171510E-1
1.094389555E1;-1.104020000E0;2.522468567E0;1.149980307E0
1.096161948E1;8.233245611E-1;2.132469177E0;-1.003768206E0
1.097934330E1;1.518413782E0;1.698036194E0;4.397769868E-1
1.099706779E1;6.354948282E-1;3.117322922E-1;3.078527689E0
1.101479105E1;8.213304877E-1;8.979701996E-2;3.654337406E0
1.103250456E1;7.660673261E-1;6.197500229E-1;3.029672146E0
1.105024100E1;1.375889301E0;9.955015182E-1;1.910362244E0
1.106796305E1;2.345371962E0;6.556253433E-1;1.622003198E0
1.108568595E1;3.387044191E0;-2.792873383E-1;2.149787188E0
1.110341074E1;4.434024334E0;-1.373234749E0;3.183050156E0
1.112114030E1;5.080399990E0;-1.798635483E0;4.872499466E0
1.113886015E1;6.407927513E0;-1.755506516E0;6.086037159E0
1.115658256E1;8.352257729E0;-1.192489624E0;3.987333298E0
1.117430369E1;7.072227955E0;-1.292471886E0;4.761733055E0
1.119203037E1;3.337039948E0;-3.776090622E0;5.158103943E0
1.120975687E1;1.384681463E-1;-6.513288498E0;7.754293442E0
1.122747770E1;1.449134350E0;-6.130509377E0;6.093609810E0
1.124520219E1;3.205464840E0;-4.506287575E0;-3.107565045E-1
1.126292539E1;2.190759420E0;-4.251216888E0;-6.263569355E0
1.128065000E1;-3.894366264E0;-6.473375320E0;-5.650587559E0
1.129837376E1;-7.697476387E0;-8.435869217E0;3.380396962E-1
1.131609776E1;-5.402949333E0;-5.338855743E0;1.072263598E0
1.133382871E1;-3.827003479E0;-3.355069160E0;-1.052120924E-1
1.135154575E1;-3.265254259E0;-1.458879471E0;-1.475017071E0
1.136926963E1;-2.957037926E0;-4.292488098E-2;-3.055778027E0
1.138699357E1;-2.294837713E0;1.114586830E0;-3.008492470E0
1.140471738E1;-5.488241911E-1;2.478304863E0;-2.430924892E0
1.142244120E1;1.564593673E0;3.109912872E0;-2.580909491E0
1.144016831E1;7.130898237E-1;2.741185188E0;-4.652081490E0
1.145788944E1;-1.064622402E0;3.108658791E0;-6.190538406E0
1.147561308E1;-1.319876671E0;4.472967148E0;-6.087858677E0
1.149332584E1;-1.901281714E0;4.981504440E0;-5.714305878E0
1.151106474E1;-2.440899372E0;5.634147644E0;-5.902232170E0
1.152878501E1;-2.699095726E0;6.490564823E0;-5.405097961E0
1.154650919E1;-2.980200291E0;6.255408287E0;-4.319042683E0
1.156422953E1;-2.629256010E0;4.849689484E0;-2.872066259E0
1.158195676E1;-1.200219750E0;1.957571507E0;1.328531027E0
1.159966874E1;1.569256067E0;-2.638613701E0;9.425525665E0
1.161740537E1;7.172619343E0;-9.622227669E0;1.285853195E1
1.163512876E1;6.938227654E0;-8.735296249E0;8.902820587E0
1.165284940E1;2.777368546E0;-1.955543518E0;5.698241234E0
1.167057658E1;-1.923604488E0;3.538417816E-1;3.614533901E0
1.168828965E1;-3.774778605E0;1.994915962E0;1.865229845E0
1.170602726E1;-3.491714001E0;8.954133987E-1;-1.720092177E0
1.172374827E1;-2.118865490E0;8.190279007E-1;-4.907066345E0
1.174146873E1;-5.001466274E0;-1.030395508E0;-5.672210693E0
1.175919614E1;-6.819109440E0;-6.900723457E0;9.208793640E-1
1.177691996E1;-2.291859150E0;-9.097959518E0;2.528799534E0
1.179464701E1;-1.283710241E0;-1.363739967E0;-2.535772800E0
1.181236802E1;-1.601041079E0;3.135165215E0;-8.235586166E0
1.183008884E1;-1.433513641E0;3.561600685E0;-8.484033585E0
1.184781596E1;-8.096336126E-1;2.872839928E0;-7.195906162E0
1.186552793E1;-1.871091127E-2;2.610340118E-1;-5.113746166E0
1.188326377E1;3.215570450E0;-2.744499207E0;-2.932666302E0
1.190098771E1;8.575738907E0;-3.909414291E0;-2.635166883E0
1.191871299E1;6.611508846E0;-1.687381744E0;-4.120888412E-1
1.193643558E1;2.251750946E0;1.580283165E0;2.995497465E0
1.195416142E1;-1.445320129E0;1.835920334E0;2.464644909E0
1.197188371E1;-3.352225065E0;1.539956093E0;6.753150225E-1
1.198959293E1;-2.421931267E0;1.900722504E0;1.356214762E0
1.200733164E1;-6.113686562E-1;2.068092346E0;-2.730467558E0
1.202505558E1;1.658231020E-1;1.739284515E0;1.167311668E0
1.204277781E1;1.623443216E-1;3.549709320E-1;4.654460907E0
1.206050297E1;9.401914477E-1;3.334035873E-1;3.887720585E0
1.207822709E1;1.826972008E0;6.093378067E-1;2.613053322E0
1.209595127E1;2.109027147E0;1.134517670E0;1.668123722E0
1.211367509E1;1.853344917E0;1.588978767E0;5.623011589E-1
1.213139042E1;1.292544127E0;6.534996033E-1;6.329118013E-1
1.214912315E1;1.345699549E0;-7.366828918E-1;1.572038770E0
1.216683530E1;2.110253811E0;-1.434624672E0;2.675387621E0
1.218457060E1;3.307749271E0;-1.800552368E0;4.125559807E0
1.220229496E1;5.127743721E0;-1.837928772E0;4.560458660E0
1.222001804E1;7.288970947E0;-1.832750320E0;2.956763029E0
1.223774278E1;8.310066223E0;-1.410228729E0;2.046956301E0
1.225546024E1;6.160427094E0;-2.397966385E0;7.290083885E0
1.227319035E1;4.102494240E0;-4.651918411E0;1.048244858E1
1.229091465E1;2.993139982E0;-6.328634262E0;7.169463158E0
1.230863450E1;2.121538639E0;-5.870137215E0;5.564333916E0
1.232636259E1;1.115145445E0;-4.403186798E0;1.726920485E0
1.234407560E1;2.422839850E-1;-3.607238770E0;-3.810997486E0
1.236181321E1;-5.700569630E0;-5.522665977E0;-5.151478767E0
1.237953178E1;-9.692038536E0;-6.905151367E0;-1.619270205E0
1.239725510E1;-5.588914871E0;-3.105240822E0;4.883809090E-1
1.241498222E1;-2.587809086E0;-3.190796852E0;5.146121979E-2
1.243270585E1;-1.215242594E-1;-1.432126045E0;-2.886099815E0
1.245043327E1;7.829740047E-1;-4.365634918E-2;-4.165501118E0
1.246815440E1;6.834489107E-1;1.064670563E0;-3.165791512E0
1.248586643E1;4.248707294E-1;2.041897774E0;-3.414519072E0
1.250360209E1;1.641183019E0;3.212658882E0;-4.386594772E0
1.252132578E1;9.570298195E-1;3.451413631E0;-5.135449409E0
1.253905015E1;-3.189988136E-1;3.800502777E0;-4.886669159E0
1.255677403E1;-1.176011205E0;4.228953362E0;-4.652850151E0
1.257449583E1;-2.333168745E0;4.248729706E0;-5.143262863E0
1.259222172E1;-3.078598022E0;4.729915142E0;-5.453646660E0
1.260993705E1;-3.378969193E0;5.521982670E0;-5.365586281E0
1.262766978E1;-3.337647438E0;5.570318699E0;-4.327639103E0
1.264537821E1;-2.877973557E0;4.540183067E0;-2.689622879E0
1.266311778E1;-1.950018048E0;9.266958237E-1;4.175860405E0
1.268084196E1;7.360525727E-1;-4.606253624E0;1.106853104E1
1.269856278E1;5.221058369E0;-7.908693314E0;1.090710640E1
1.271628965E1;4.634620667E0;-4.634370804E0;8.869199753E0
1.273401371E1;6.890429854E-1;-4.599132538E-1;5.466426373E0
1.275173789E1;-1.294596910E0;2.106078148E0;2.161027670E0
1.276946152E1;-3.600230813E-1;2.401436806E0;1.401024342E0
1.278718571E1;1.263790727E-1;1.121122360E0;-4.357567787E0
1.280490928E1;-3.830722332E0;2.973699570E-1;-6.588253021E0
1.282262199E1;-8.769120216E0;-3.453105927E0;-3.528199196E0
1.284035703E1;-7.803076744E0;-1.214984226E1;9.458530426E0
1.285808134E1;-7.502013445E-1;-6.014364243E0;-1.042638183E0
1.287580509E1;2.760422528E-1;1.189959526E0;-6.453878403E0
1.289351481E1;-2.864803970E-1;3.507238388E0;-8.705887794E0
1.291124290E1;-3.547963500E-2;4.090305328E0;-8.450137138E0
1.292896555E1;-6.574238539E-1;2.152853966E0;-7.763093472E0
1.294670133E1;9.102535844E-1;-1.252359390E0;-5.529480457E0
1.296442545E1;6.110853195E0;-4.631287575E0;-4.441086769E0
1.298214634E1;8.918004990E0;-5.049569130E0;-3.721458197E0
1.299987284E1;5.030755997E0;-1.926603317E-1;3.000036240E0
1.301759733E1;-1.496102214E-1;8.289670944E-1;5.357151985E0
1.303532096E1;-3.333821535E0;1.315899849E0;3.950152636E0
1.305304496E1;-4.046952248E0;1.323756218E0;1.528097391E0
1.307076914E1;-2.247711182E0;2.389650345E0;5.923807621E-1
1.308849271E1;-9.210935235E-2;2.492551327E0;-1.462447286E0
1.310622007E1;1.203633666E0;1.995292664E0;-2.577030420E0
1.312394071E1;9.421437979E-3;8.661527634E-1;2.501848698E0
1.314166447E1;3.244727850E-3;4.609680176E-1;4.572219849E0
1.315938895E1;1.137904167E0;1.083095551E0;3.323623657E0
1.317710117E1;2.005556822E0;1.182145119E0;1.725370169E0
1.319483616E1;2.128090382E0;3.513183594E-1;1.530889869E0
1.321256089E1;1.862479687E0;-1.054666519E0;2.468409300E0
1.323028477E1;2.169710159E0;-1.884877205E0;3.109330893E0
1.324800889E1;2.855219603E0;-1.849603653E0;3.322375059E0
1.326573277E1;4.287134171E0;-1.907673836E0;2.992829323E0
1.328345658E1;6.258090496E0;-1.554463387E0;2.732559681E0
1.330116904E1;7.122675896E0;-9.582738876E-1;3.597271919E0
1.331890488E1;5.093385696E0;-1.098349571E0;5.859974861E0
1.333662876E1;1.975680351E0;-2.848181725E0;8.227643013E0
1.335435258E1;1.089240670E0;-5.297940254E0;7.439410210E0
1.337207682E1;2.104599953E0;-5.211482048E0;5.844828129E0
1.338980106E1;3.255879164E0;-3.818953514E0;5.198290825E0
1.340752775E1;4.445022583E0;-3.617659569E0;1.399919391E0
1.342524888E1;3.223765373E0;-4.439566612E0;-5.962948322E0
1.344296818E1;-3.098372698E0;-5.400774002E0;-6.088162422E0
1.346069639E1;-8.407417297E0;-7.221919060E0;-2.453145742E0
1.347840653E1;-5.412909031E0;-3.873508453E0;4.691641331E-1
1.349614524E1;-4.408523083E0;-2.955699921E0;9.427738190E-2
1.351386894E1;-4.216632843E0;-1.146512032E0;-2.164378643E0
1.353159129E1;-3.602265358E0;5.185327530E-1;-3.397219658E0
1.354931675E1;-1.285203695E0;1.997780800E0;-2.084344387E0
1.356702860E1;7.216129303E-1;2.404424667E0;-1.779692173E0
1.358476395E1;5.350656033E0;3.021753311E0;-3.486429930E0
1.360248856E1;3.531107187E0;2.384895325E0;-4.816596031E0
1.362021214E1;7.559235096E-1;2.771815300E0;-4.302216530E0
1.363793687E1;-8.623983264E-1;3.815229416E0;-4.499252319E0
1.365564878E1;-2.048416853E0;4.960611343E0;-5.039758205E0
1.367338462E1;-2.805436611E0;6.072587490E0;-6.173048019E0
1.369110880E1;-3.126924276E0;6.932034016E0;-6.349681854E0
1.370883262E1;-3.555762053E0;6.281713486E0;-5.167871952E0
1.372655674E1;-3.319320679E0;5.411477089E0;-3.586251736E0
1.374428062E1;-2.262164354E0;3.051661015E0;-1.243324041E0
1.376200468E1;-6.846287251E-1;-1.372505188E0;4.678705215E0
1.377971684E1;2.876670361E0;-8.423162460E0;1.170037460E1
1.379745274E1;8.393067360E0;-1.226280785E1;1.292381954E1
1.381517692E1;7.336849213E0;-5.957843781E0;1.152610493E1
1.383290073E1;2.804675102E0;-1.822332382E0;5.578711510E0
1.385062492E1;-7.766333818E-1;8.518056870E-1;2.925118446E0
1.386834898E1;-1.515293837E0;3.158933640E0;-1.763196826E0
1.388607267E1;-1.035750151E0;2.099530220E0;-5.952918053E0
1.390379691E1;-2.422834635E0;1.486120224E-1;-7.164736748E0
1.392152085E1;-5.846645355E0;-2.769391060E0;-5.757643700E0
1.393924497E1;-5.819138527E0;-7.204624176E0;2.858560562E0
1.395695731E1;-3.732281923E0;-6.003094673E0;8.427744865E0
1.397469517E1;-3.587639809E0;1.744333267E0;9.573066235E-1
1.399241996E1;-3.779966831E0;3.823219299E0;-7.749847412E0
1.401013969E1;-2.178101301E0;3.909091949E0;-1.080086231E1
1.402786485E1;-4.727822840E-1;2.438946724E0;-8.158284187E0
1.404557694E1;1.653574944E0;-1.142430305E0;-4.513763428E0
1.406331571E1;7.314623833E0;-4.546865463E0;-2.618210316E0
1.408103727E1;1.062897968E1;-4.712523460E0;-2.092081010E-1
1.409876121E1;5.991622925E0;5.340776443E-1;3.246135950E0
1.411648521E1;4.444200397E-1;1.482107162E0;2.283836842E0
1.413419102E1;-2.744081259E0;1.861906052E0;7.717518210E-1
1.415193693E1;-3.530672073E0;2.223006248E0;7.935134768E-1
1.416965727E1;-3.019714594E0;1.950101852E0;4.239467382E-1
1.418737949E1;-1.827876329E0;1.218210220E0;1.444880366E-1
1.420510508E1;-4.468336701E-1;4.132833481E-1;-3.180446625E-1
1.422281870E1;1.131519377E-1;6.306781769E-1;2.969471455E0
1.424055338E1;9.788496494E-1;8.968105316E-1;3.668450356E0
1.425827738E1;1.127237320E0;7.179040909E-1;2.554244995E0
1.427600132E1;1.113683701E0;2.431097031E-1;1.979059339E0
1.429372544E1;1.736583829E0;-3.211240768E-1;2.610042810E0
1.431144950E1;3.081649542E0;-6.703376770E-1;2.638232946E0
1.432917350E1;3.980342150E0;-9.266490936E-1;2.665002346E0
1.434689756E1;4.433506012E0;-1.609269142E0;3.735431910E0
1.436462144E1;5.591987133E0;-1.644918442E0;3.821564436E0
1.438234574E1;6.190084457E0;-1.094562531E0;1.611765027E0
1.440006992E1;3.846501112E0;-1.243065834E0;4.854630470E0
1.441779374E1;1.134119987E0;-2.209778786E0;8.929887772E0
1.443551786E1;1.774183035E0;-4.006408691E0;6.739172935E0
1.445324204E1;3.481949091E0;-5.524756432E0;4.104141712E0
1.447096616E1;2.853049278E0;-4.625016212E0;4.577118874E0
1.448868992E1;2.688125372E0;-3.906669617E0;3.425757170E0
1.450641398E1;1.252559185E0;-4.193051338E0;-2.505276918E0
1.452413151E1;-3.076255083E0;-4.711313248E0;-3.932992220E0
1.454186515E1;-7.762117863E0;-7.634261131E0;-1.914518476E0
1.455958628E1;-5.339355946E0;-5.224590302E0;-2.948685288E-1
1.457730820E1;-3.102406979E0;-3.361865997E0;1.923382282E-2
1.459503452E1;-2.142023325E0;-1.483221054E0;-7.910282612E-1
1.461274680E1;-2.219096899E0;1.232433319E-2;-2.750226974E0
1.463048673E1;-1.935733795E0;1.050877571E0;-2.653161049E0
1.464820658E1;-6.241963506E-1;2.570052624E0;-2.279227018E0
1.466592777E1;1.970510364E0;3.603193283E0;-3.134793997E0
1.468365482E1;2.665339947E0;3.501852036E0;-5.298952103E0
1.470136875E1;6.198730469E-1;3.213840008E0;-5.630698204E0
1.471910416E1;-4.103688002E-1;3.536020279E0;-4.303810120E0
1.473682676E1;-1.842234850E0;3.370501995E0;-4.033703327E0
1.475455009E1;-3.441788435E0;3.613595486E0;-5.657001495E0
1.477227500E1;-4.071094513E0;4.977645874E0;-5.722701073E0
1.478999857E1;-4.120870113E0;6.111127853E0;-4.887957573E0
1.480772294E1;-3.647084475E0;6.368411064E0;-4.213356972E0
1.482544712E1;-2.243152142E0;5.142239571E0;-1.996047020E0
1.484316825E1;-2.653149068E-1;2.518448830E0;2.892886400E0
1.486089512E1;3.268140793E0;-1.261578560E0;1.128589630E1
1.487861924E1;9.196920395E0;-8.235695839E0;1.455850124E1
1.489634660E1;9.854494095E0;-1.088886642E1;1.297718239E1
1.491406773E1;4.666073322E0;-4.290498734E0;8.674547195E0
1.493179075E1;5.792028904E-1;-2.005758286E-1;4.999428272E0
1.494951572E1;-1.236380219E0;5.457983017E-1;-2.340078354E-2
1.496723985E1;-6.473444700E-1;-2.401195526E0;-3.735492945E0
1.498496696E1;-1.527614355E0;-3.727082253E0;-7.397656441E0
1.500268778E1;-3.791584730E0;-2.982944489E0;-7.187333584E0
1.502041172E1;-5.882802010E0;-2.423577309E0;3.852441072E0
1.503813615E1;-1.024886322E1;4.298276901E-1;6.383128166E0
1.505586021E1;-7.523883820E0;3.166833401E0;-6.632795334E0
1.507358433E1;-4.626075745E0;2.371952534E0;-1.227380371E1
1.509129679E1;-1.905934691E0;1.847801685E0;-1.080111504E1
1.510903233E1;7.297394276E-1;-2.100200653E-1;-5.074968338E0
1.512675663E1;7.256131649E0;-3.222637177E0;-2.811164618E0
1.514447758E1;1.275197124E1;-5.168644905E0;-2.261066437E0
1.516219291E1;8.760798454E0;-1.358173370E0;6.714069247E-1
1.517991886E1;3.516558170E0;1.900794029E0;1.753777385E0
1.519765549E1;-9.679175615E-1;8.675041199E-1;6.346104145E-1
1.521537705E1;-3.096485853E0;1.189121246E0;-2.490527034E-1
1.523309751E1;-3.786254168E0;1.700869560E0;6.703026891E-1
1.525082517E1;-3.636894941E0;1.435550690E0;2.521604538E0
1.526853648E1;-2.290669441E0;7.270364761E-1;4.136921167E-1
1.528627439E1;-8.196327686E-1;8.659381866E-1;9.932386875E-1
1.530399760E1;2.447433770E-1;7.610177994E-1;2.401339769E0
1.532171885E1;5.179117918E-1;5.879678726E-1;3.553407192E0
1.533944590E1;1.150198102E0;7.518854141E-1;2.828097820E0
1.535716953E1;2.257799149E0;6.981220245E-1;1.839858413E0
1.537489719E1;3.273194313E0;1.131181717E-1;1.277999163E0
1.539261802E1;3.986491680E0;-5.794229507E-1;1.089513898E0
1.541033915E1;4.395457268E0;-1.204907417E0;2.005048513E0
1.542806626E1;3.733484745E0;-1.937171936E0;4.905563354E0
1.544577866E1;4.131053448E0;-2.059738159E0;5.103828430E0
1.546351640E1;5.613136292E0;-1.743326187E0;2.149748325E0
1.548122373E1;5.888552666E0;-1.170516014E0;2.035780430E0
1.549896244E1;3.775267601E0;-2.198691368E0;6.319406033E0
1.551668687E1;3.028831005E0;-4.478783607E0;6.272117615E0
1.553441087E1;3.593280792E0;-5.964607239E0;7.244042397E0
1.555213511E1;3.671171427E0;-5.390696526E0;7.587730885E0
1.556985923E1;2.636000395E0;-4.251236916E0;3.158633232E0
1.558758628E1;1.095221877E0;-3.312056541E0;-2.040084362E0
1.560530747E1;-2.664146900E0;-3.646968842E0;-4.163998604E0
1.562303153E1;-6.427867413E0;-5.140515327E0;-2.065480232E0
1.564075571E1;-4.357894897E0;-3.820749283E0;1.168453336E0
1.565846806E1;-2.036556721E0;-3.681791306E0;7.437360287E-2
1.567620652E1;-7.176961899E-1;-2.277983665E0;-2.284358501E0
1.569392814E1;-9.314221144E-1;-7.864055634E-1;-4.081364632E0
1.571165220E1;-9.997532368E-1;4.157381058E-1;-3.059950352E0
1.572937632E1;-1.273120522E0;1.357613564E0;-2.374172211E0
1.574708878E1;6.521482468E-1;2.912724495E0;-3.572034359E0
1.576482590E1;2.268701553E0;3.897230625E0;-5.709908009E0
1.578254893E1;3.552600443E-1;4.018566132E0;-5.594676971E0
1.580026975E1;-9.538930655E-1;4.737338066E0;-3.883859158E0
1.581799711E1;-1.554920673E0;5.176616669E0;-3.694816113E0
1.583570689E1;-2.010602236E0;5.190170765E0;-4.527326107E0
1.585344730E1;-2.159612656E0;5.323845387E0;-4.304005146E0
1.587116953E1;-2.298124075E0;5.346895218E0;-3.591716528E0
1.588889329E1;-2.576084375E0;5.153617382E0;-2.882403851E0
1.590661759E1;-2.421542645E0;3.761624336E0;-1.396973848E0
1.592432987E1;-1.391212702E0;3.293476105E-1;3.872845173E0
1.594206767E1;2.447669029E0;-4.860265732E0;1.228984547E1
1.595979014E1;8.594015121E0;-1.075751686E1;1.355683327E1
1.597751188E1;6.001403809E0;-5.909244537E0;1.029426956E1
1.599523844E1;1.893680692E0;-7.409324646E-1;3.550456762E0
1.601295097E1;-1.078121185E0;1.487887383E0;2.135279179E0
1.603068668E1;-1.613950253E0;1.244982719E0;1.678940296E0
1.604841074E1;1.504074097E0;-2.668129921E0;-5.162195206E0
1.606613480E1;-1.029046297E0;-6.954988480E0;-5.742858887E0
1.608385899E1;-5.341804981E0;-7.946930885E0;3.172864914E-1
1.610158823E1;-8.451186180E0;-3.050529480E0;2.778370857E0
1.611929343E1;-9.580302238E0;4.097158432E0;-6.463091850E0
1.613701988E1;-7.112207413E0;5.367433548E0;-1.129721928E1
1.615474430E1;-5.039230347E0;3.055640697E0;-9.907855988E0
1.617247965E1;-3.882818222E0;2.362632751E-2;-6.513227463E0
1.619020384E1;-1.031860948E0;-3.056141853E0;-2.943542004E0
1.620792808E1;6.172918320E0;-4.039299965E0;-4.342085123E-1
1.622565220E1;1.509130859E1;-4.695866585E0;-1.418477893E0
1.624337656E1;1.272108936E1;-3.315613747E0;1.074041843E0
1.626110044E1;5.997474670E0;1.764548302E0;2.349388599E0
1.627882481E1;-2.149490714E-1;1.482167244E0;8.623009920E-1
1.629654893E1;-3.174426079E0;1.661061287E0;1.354358792E-1
1.631427305E1;-4.338913918E0;1.152800560E0;7.367073298E-1
1.633199992E1;-3.295994997E0;1.639084816E0;3.435132265E0
1.634972154E1;-1.336188436E0;1.591820717E0;1.539014578E0
1.636743168E1;7.490099669E-1;1.379444122E0;-3.610148668E0
1.638516978E1;3.504672647E-2;9.517335892E-1;2.075052738E0
1.640287681E1;-3.268902302E-1;7.240476608E-1;4.667424202E0
1.642062028E1;6.301100254E-1;5.806627274E-1;3.168142796E0
1.643833891E1;1.530337572E0;5.573959351E-1;1.464911103E0
1.645606315E1;2.302059412E0;7.036542892E-1;8.017486334E-1
1.647378013E1;2.633947372E0;1.592226028E-1;1.825670242E0
1.649151432E1;2.659828663E0;-6.723814011E-1;3.301444769E0
1.650924186E1;2.356296778E0;-1.276230812E0;4.392107964E0
1.652696299E1;3.682401180E0;-1.872795105E0;4.090670586E0
1.654468705E1;7.127995014E0;-1.522935867E0;2.983601570E0
1.656241148E1;9.535921097E0;-1.166918755E0;1.879665375E0
1.658013535E1;8.065284729E0;-1.639668465E0;3.837712765E0
1.659785984E1;4.366091728E0;-3.811415672E0;8.251405716E0
1.661558384E1;2.753450155E0;-6.202570915E0;7.427378654E0
1.663330497E1;1.410913348E0;-5.593384743E0;5.399964333E0
1.665103239E1;1.236632347E0;-4.578140259E0;3.902836561E0
1.666874491E1;-4.292500019E-2;-4.044582367E0;-1.635708451E0
1.668648301E1;-4.525125980E0;-4.986098289E0;-4.567855358E0
1.670420469E1;-7.809843063E0;-6.210869789E0;-2.503555775E0
1.672192899E1;-5.919651031E0;-3.553565025E0;-2.688157558E-2
1.673965311E1;-3.323797703E0;-2.566876411E0;7.962073088E-1
1.675737730E1;-1.504040241E0;-1.861531258E0;-6.834281087E-1
1.677510142E1;-5.660953522E-1;-2.421817780E-1;-2.666734219E0
1.679281437E1;-2.368217409E-1;7.289304733E-1;-3.092308521E0
1.681054996E1;-4.168431759E-1;1.356333733E0;-2.008965492E0
1.682827409E1;4.693973660E-1;2.737040520E0;-2.965267181E0
1.684599808E1;2.673951387E0;3.723797798E0;-4.643162251E0
1.686371946E1;1.061816096E0;3.003630161E0;-4.683386803E0
1.688144669E1;-6.801569462E-1;3.038365364E0;-3.536112309E0
1.689917368E1;-1.411415458E0;3.440951347E0;-3.275414467E0
1.691689488E1;-2.340297699E0;3.848828793E0;-4.649217129E0
1.693461485E1;-3.086273909E0;4.500184059E0;-4.982956409E0
1.695234342E1;-3.146450758E0;5.295500278E0;-4.960560799E0
1.697005186E1;-3.190464497E0;5.363843441E0;-4.076663494E0
1.698779331E1;-3.219148159E0;4.607194901E0;-2.779053688E0
1.700551597E1;-2.351332903E0;1.824959755E0;1.473190308E0
1.702323801E1;-8.151707053E-2;-3.019117355E0;1.019285393E1
1.704096446E1;5.070037365E0;-7.671260834E0;1.212491512E1
1.705868809E1;6.141963959E0;-6.456015587E0;9.356109619E0
1.707641569E1;2.463992834E0;-1.594452858E0;6.738872528E0
1.709413682E1;-3.047720492E-1;9.517469406E-1;3.197418690E0
1.711186094E1;-6.344599724E-1;2.514022350E0;2.148524761E0
1.712958536E1;2.405269146E-1;1.358878136E0;-1.338176727E-1
1.714730918E1;-4.913719893E-1;5.820436478E-1;-5.605621815E0
1.716503367E1;-4.449002743E0;-9.005022049E-1;-7.591789246E0
1.718275791E1;-8.031742096E0;-6.957616806E0;-1.516866684E-2
1.720048228E1;-5.912978172E0;-1.212651730E1;7.363723755E0
1.721820634E1;-1.959358931E0;-1.530134201E0;-8.058820963E-1
1.723593052E1;-1.939616680E0;3.126392841E0;-6.976949692E0
1.725365556E1;-1.667953134E0;4.020252228E0;-8.532136917E0
1.727137900E1;-8.142685890E-1;3.574985504E0;-7.469064713E0
1.728910233E1;-4.486197829E-1;1.014247894E0;-5.178323746E0
1.730682755E1;3.254147530E0;-1.802609444E0;-2.681947231E0
1.732455137E1;8.762788773E0;-3.941459656E0;-2.679975986E0
1.734227573E1;7.987839222E0;-2.751079559E0;-8.492853642E-1
1.736000022E1;3.469660282E0;1.400362968E0;2.617511034E0
1.737772416E1;-7.444877625E-1;1.177584648E0;3.954511881E0
1.739544834E1;-3.294275999E0;1.228796959E0;2.630777359E0
1.741317265E1;-3.022709131E0;1.403499603E0;1.418384552E0
1.743089707E1;-1.551072240E0;1.895360947E0;-1.662192941E-1
1.744862119E1;-2.175253034E-1;1.129041672E0;-7.514991164E-1
1.746634782E1;6.698071957E-1;6.204957962E-1;2.552407265E0
1.748406944E1;1.674515247E0;4.241237640E-1;3.332448483E0
1.750179087E1;2.217494488E0;5.088853836E-1;2.913771629E0
1.751951817E1;2.194741011E0;9.898729324E-1;1.642039895E0
1.753723234E1;2.018004417E0;7.318019867E-1;9.776214361E-1
1.755496732E1;1.873385310E0;7.959651947E-2;1.261909962E0
1.757269083E1;1.953931212E0;-2.407636642E-1;2.400079250E0
1.759041349E1;2.201983213E0;-7.772932053E-1;3.566935539E0
1.760813895E1;2.274699688E0;-1.448693275E0;4.504858017E0
1.762585758E1;3.301139355E0;-1.823917389E0;4.752839088E0
1.764358915E1;5.138393402E0;-1.602408409E0;3.515285492E0
1.766131162E1;5.888891220E0;-1.343199730E0;1.853498578E0
1.767903751E1;5.284821987E0;-1.340478897E0;4.739932537E0
1.769676035E1;4.518133163E0;-2.091755867E0;8.256198883E0
1.771448399E1;3.595545769E0;-4.732782364E0;7.634759426E0
1.773221189E1;3.242258072E0;-5.408070564E0;4.267341137E0
1.774993278E1;3.176658630E0;-4.466848373E0;2.730533361E0
1.776765269E1;2.455656290E0;-4.142477989E0;-4.448429644E-1
1.778538139E1;-3.921861947E-1;-4.590844154E0;-4.461642265E0
1.780310392E1;-5.544556618E0;-6.216414452E0;-5.104762077E0
1.782082969E1;-5.780314445E0;-4.483973503E0;-2.337359905E0
1.783855405E1;-3.589047432E0;-2.476716995E0;-8.600327969E-1
1.785627848E1;-2.298470020E0;-2.176466942E0;-4.429268837E-1
1.787400254E1;-1.615587711E0;-5.389585495E-1;-1.401829839E0
1.789172672E1;-1.259016991E0;6.327781677E-1;-2.130838871E0
1.790945109E1;-4.746684134E-1;1.604545593E0;-1.719127059E0
1.792717515E1;9.705176353E-1;2.607586861E0;-1.851060033E0
1.794489951E1;3.232393980E0;3.200814724E0;-4.085394382E0
1.796262351E1;1.217373967E0;2.158118248E0;-5.003496647E0
1.798035062E1;-3.734366596E-1;2.597808838E0;-4.373339176E0
1.799807212E1;-1.468231201E0;3.648454666E0;-3.470434666E0
1.801579649E1;-2.936067581E0;4.147697449E0;-3.668840647E0
1.803352360E1;-4.059297085E0;4.920151711E0;-5.509947777E0
1.805124503E1;-4.413209438E0;5.691444874E0;-5.538388729E0
1.806896629E1;-4.120336056E0;5.456583500E0;-4.062787533E0
1.808669321E1;-3.515645027E0;4.308403969E0;-2.226591825E0
1.810441935E1;-2.556246519E0;1.718595505E0;7.439186573E-1
1.812214280E1;-6.383484006E-1;-2.264813423E0;6.744721413E0
1.813986588E1;3.399558544E0;-6.893171310E0;1.082980251E1
1.815758939E1;6.910018444E0;-7.070232391E0;9.220083237E0
1.817531455E1;4.053148270E0;-2.881143570E0;6.942742348E0
1.819302702E1;1.212113857E0;-1.346139908E-1;3.455593348E0
1.821076310E1;2.518359721E-1;1.288168907E0;1.779110193E0
1.822848734E1;-2.028672695E-1;-3.426742554E-2;1.705962181E0
1.824620860E1;-2.992561460E-1;-2.635399818E0;-3.547614813E-1
1.826393583E1;-2.571054697E0;-3.797026634E0;-4.789917946E0
1.828166001E1;-5.295760155E0;-4.169752121E0;-4.706162453E0
1.829938444E1;-4.165865421E0;-2.475126266E0;1.811895370E0
1.831710850E1;-3.860748768E0;-2.454090118E-2;2.406409502E0
1.833483299E1;-3.824853420E0;2.365188599E0;-2.769658327E0
1.835255704E1;-3.218609571E0;2.992904663E0;-6.036140919E0
1.837028281E1;-2.478093863E0;1.998972893E0;-6.756204605E0
1.838800565E1;-7.907529473E-1;1.022095680E0;-5.308239937E0
1.840571812E1;1.358931065E0;-2.477760315E-1;-3.683536530E0
1.842345499E1;4.996431828E0;-1.882336617E0;-1.728590727E0
1.844117832E1;7.708514214E0;-2.907780647E0;1.500142574E0
1.845889976E1;4.633920670E0;-1.066397667E0;2.173823357E0
1.847662730E1;2.903963327E-1;9.493198395E-1;6.158693433E-1
1.849435117E1;-2.255235672E0;1.722238541E0;-8.922659159E-1
1.851207554E1;-3.219516754E0;1.038927078E0;8.375116587E-1
1.852979966E1;-2.439528704E0;9.879255295E-1;1.840131044E0
1.854752378E1;-1.563557863E0;8.178863525E-1;-3.216216326E0
1.856524845E1;-7.366451621E-2;2.226960182E0;2.099010944E-1
1.858297251E1;1.908941567E-1;8.714103699E-1;3.574414253E0
1.860069877E1;1.087012649E0;7.516689301E-1;3.466053009E0
1.861842094E1;1.700554848E0;3.968744278E-1;3.146954536E0
1.863614536E1;2.369962692E0;6.001224518E-1;2.217552662E0
1.865386948E1;2.819601536E0;6.055669785E-1;1.009788513E0
1.867158433E1;2.832006216E0;1.843862534E-1;9.677839279E-1
1.868931736E1;2.977897167E0;-6.309213638E-1;1.799830198E0
1.870704264E1;3.056962967E0;-1.014328003E0;3.612077713E0
1.872476420E1;3.247736216E0;-2.138203621E0;5.786437511E0
1.874249058E1;5.746823788E0;-2.096746445E0;4.460312843E0
1.876021989E1;7.629742622E0;-6.951942444E-1;1.359716296E0
1.877794175E1;5.859897614E0;-8.078584671E-1;1.433698654E0
1.879566392E1;2.138213158E0;-2.753201485E0;8.578731537E0
1.881338798E1;2.094437838E0;-3.905875206E0;9.900529861E0
1.883111216E1;4.089815140E0;-3.674848557E0;9.683657646E0
1.884882267E1;3.241936207E0;-5.180038452E0;5.568233967E0
1.886656101E1;1.191469908E0;-5.311989784E0;4.652618885E0
1.888428507E1;2.318140984E0;-5.078654289E0;-1.552256823E0
1.890200932E1;-7.824145555E-1;-5.614251137E0;-6.990021706E0
1.891973350E1;-5.843634605E0;-5.995851517E0;-4.931703568E0
1.893745725E1;-4.329560757E0;-3.680799484E0;-2.269284010E0
1.895518192E1;-7.706643343E-1;-3.112585068E0;-2.522094250E-1
1.897289738E1;5.191721916E-1;-3.023666382E0;-1.133982658E0
1.899063145E1;-4.216764569E-1;-8.174600601E-1;-2.262094259E0
1.900835508E1;-1.542504668E0;5.191335678E-1;-3.266546488E0
1.902607890E1;-3.943974078E-1;2.093548298E0;-2.337161303E0
1.904380326E1;1.374859333E0;3.407042503E0;-2.447116375E0
1.906152976E1;2.830198050E0;3.084723473E0;-3.064625978E0
1.907925211E1;1.135575533E0;2.353671551E0;-3.953707695E0
1.909697617E1;-3.914623260E-1;3.092276573E0;-5.105480194E0
1.911470054E1;-1.440038323E0;3.798374653E0;-5.908942223E0
1.913242497E1;-3.139163494E0;4.106289387E0;-5.771068096E0
1.915013737E1;-4.528765678E0;4.167957306E0;-5.701244354E0
1.916787315E1;-4.858618259E0;4.845056057E0;-4.723934650E0
1.918559776E1;-4.819060802E0;5.290945053E0;-3.405641079E0
1.920331870E1;-4.519275665E0;4.666054249E0;-2.034920454E0
1.922104624E1;-3.446712732E0;1.392205238E0;1.625236273E0
1.923875846E1;-1.197138578E-1;-3.201051712E0;8.416628838E0
1.925649772E1;5.827692986E0;-8.052042961E0;1.182375145E1
1.927421744E1;8.644104958E0;-6.720000267E0;1.092658424E1
1.929194089E1;5.660635948E0;-1.997446060E0;5.496580124E0
1.930966734E1;2.733120918E0;5.982074738E-1;6.793026924E-1
1.932738603E1;1.816381335E0;3.123825550E0;-9.261029959E-1
1.934510484E1;1.219201565E0;1.853602409E0;-3.619081974E-1
1.936282926E1;-1.188833714E0;-1.825031281E0;-2.835421085E0
1.938055521E1;-5.320176125E0;-5.705492020E0;-3.170974255E0
1.939828892E1;-7.931164742E0;-1.007806969E1;2.140982628E0
1.941600138E1;-3.759931564E0;-6.044443130E0;5.277467251E0
1.943373966E1;-4.157206059E0;1.101626396E0;-2.645896912E0
1.945146165E1;-4.604626179E0;4.504787445E0;-7.579464912E0
1.946917149E1;-3.885839701E0;4.603999615E0;-9.603745461E0
1.948691026E1;-3.132146120E0;2.512378693E0;-8.305925369E0
1.950463413E1;-1.765768051E0;8.574104309E-2;-5.445109844E0
1.952236167E1;1.502567291E0;-1.807347298E0;-2.565903664E0
1.954008292E1;8.010317802E0;-2.777810097E0;3.636142015E-1
1.955780637E1;1.129124451E1;-3.515302658E0;3.655107021E0
1.957553153E1;5.825481892E0;-1.572351456E-1;3.614136934E0
1.959324424E1;3.176194429E-2;1.738556862E0;5.119451880E-1
1.961097886E1;-2.892139673E0;2.259295464E0;-3.685199022E-1
1.962870444E1;-3.278768301E0;1.765882492E0;1.596716523E0
1.964642857E1;-2.705840349E0;1.405088425E0;-1.258335114E0
1.966415299E1;-2.945169210E-1;1.888575554E0;-4.067368984E0
1.968187510E1;-2.325025201E-2;8.932113647E-1;1.805038929E0
1.969959141E1;-2.553241551E-1;-5.267276764E-1;5.544241905E0
1.971732584E1;7.364596725E-1;1.747741699E-1;3.788503647E0
1.973505253E1;1.194807529E0;4.622383118E-1;1.747074127E0
1.975277433E1;1.734081268E0;5.849914551E-1;1.123288631E0
1.977049863E1;2.110604763E0;5.774698257E-1;1.515473008E0
1.978822282E1;2.742008448E0;-1.379833221E-1;2.523741961E0
1.980593540E1;3.329216719E0;-9.671039581E-1;3.460773468E0
1.982367167E1;3.433690786E0;-1.422330856E0;3.768729210E0
1.984139591E1;4.445548058E0;-1.287919998E0;3.077245712E0
1.985912113E1;6.260917664E0;-9.776277542E-1;1.553829908E0
1.987684409E1;6.696142197E0;-7.883405685E-1;1.272942185E0
1.989455802E1;4.510678291E0;-1.574741364E0;4.717534065E0
1.991229667E1;2.753491402E0;-3.699690819E0;8.671599388E0
1.993001725E1;4.541069508E0;-3.152081490E0;7.941923618E0
1.994773887E1;4.912077904E0;-3.428483009E0;7.391607285E0
1.996546305E1;2.474909306E0;-3.895825386E0;4.096256256E0
1.998318955E1;4.976136982E-1;-4.925113678E0;1.846851707E0
2.000091520E1;-1.067412615E0;-5.136306763E0;-3.922459126E0
2.001863828E1;-5.469541073E0;-6.503179550E0;-6.077189445E0
2.003636265E1;-7.364007473E0;-5.799643517E0;-3.579557419E0
2.005408732E1;-4.373255253E0;-2.227717400E0;-4.998838902E-1
2.007181089E1;-2.405210018E0;-2.742699623E0;-5.666506290E-2
2.008953562E1;-1.078479409E0;-1.125301361E0;-9.104614258E-1
2.010725993E1;-1.047158003E0;1.871500015E-1;-2.197124004E0
2.012498100E1;-1.093993664E0;1.134817123E0;-2.354015589E0
2.014270817E1;1.189380512E-1;2.636012077E0;-1.603474498E0
2.016043241E1;2.624646425E0;3.513722897E0;-2.815185547E0
2.017815971E1;1.847981691E0;2.738870621E0;-3.985525846E0
2.019588120E1;-1.957833469E-1;2.806682587E0;-3.563150406E0
2.021360538E1;-1.354025364E0;3.499870300E0;-2.970218420E0
2.023132944E1;-2.940489054E0;4.330738544E0;-3.431270599E0
2.024905381E1;-4.389976978E0;4.865188599E0;-4.530689240E0
2.026677830E1;-4.813722610E0;5.374123096E0;-5.284380436E0
2.028448942E1;-4.156582355E0;5.620265484E0;-4.549329758E0
2.030222971E1;-3.348344564E0;5.107461929E0;-3.311505318E0
2.031995084E1;-2.909118652E0;3.584825516E0;-1.951324821E0
2.033767533E1;-2.171383858E0;5.767965317E-1;1.617166519E0
2.035539951E1;2.138525993E-1;-3.943152428E0;8.130855560E0
2.037312370E1;5.686411858E0;-9.484647751E0;1.352843857E1
2.039084800E1;1.004141998E1;-8.019556999E0;1.235787868E1
2.040857218E1;6.556306362E0;-2.740821838E0;9.614245415E0
2.042629325E1;1.954975605E0;-1.978511810E-1;3.071071148E0
2.044402055E1;-3.942561746E-1;1.748620033E0;-1.133537412E0
2.046174308E1;-1.095728397E0;1.713116646E0;-3.199142933E0
2.047947367E1;-2.137016773E0;-9.820747375E-1;-4.328250408E0
2.049719370E1;-4.093086720E0;-3.412598610E0;-4.809725761E0
2.051491483E1;-5.628892899E0;-6.382649422E0;4.647719860E-2
2.053264225E1;-5.328819275E0;-5.050105095E0;6.784073353E0
2.055036613E1;-5.501650333E0;3.764934540E-1;1.397848487E0
2.056809080E1;-4.132202625E0;4.265567780E0;-6.710392475E0
2.058581480E1;-3.523859024E0;4.257633686E0;-8.643889427E0
2.060353916E1;-2.781100512E0;2.213133812E0;-7.901080608E0
2.062126328E1;-1.390288711E0;2.517366409E-1;-5.216448784E0
2.063897623E1;2.687931061E0;-1.796204567E0;-3.412759781E0
2.065671189E1;9.588046074E0;-3.954113960E0;-2.338927984E0
2.067443613E1;9.800518990E0;-3.348546028E0;-6.457877755E-1
2.069216019E1;4.233762741E0;1.710934639E0;2.710676432E0
2.070988462E1;1.027345657E-2;1.449674606E0;3.569958687E0
2.072760874E1;-2.110762119E0;1.288858414E0;4.038861752E0
2.074533189E1;-2.361769438E0;1.417438507E0;9.852671623E-1
2.076305747E1;-2.309562445E0;9.191589355E-1;-4.495832920E0
2.078078159E1;-1.728831053E0;1.435949326E0;1.257249713E0
2.079850571E1;-1.575628757E0;9.149284363E-1;4.994089127E0
2.081622788E1;6.954929829E-1;5.268011093E-1;4.516892910E0
2.083395444E1;2.002808571E0;-1.232528687E-1;2.874138832E0
2.085167887E1;2.007695198E0;1.092329025E-1;1.959616184E0
2.086940592E1;2.016446352E0;7.730293274E-1;1.231334925E0
2.088712736E1;2.119892597E0;7.969226837E-1;1.182277679E0
2.090485142E1;2.123508930E0;-3.116102219E-1;1.864839077E0
2.092257554E1;2.006999493E0;-1.397231102E0;4.011684895E0
2.094030625E1;2.128961086E0;-2.439359665E0;5.182600498E0
2.095802140E1;4.273404598E0;-1.886698723E0;4.040904522E0
2.097574839E1;6.830308437E0;-1.054674149E0;1.654435754E0
2.099346964E1;7.097985268E0;-4.104290009E-1;1.616741419E0
2.101119694E1;4.577913761E0;-2.445784569E0;6.154441357E0
2.102890592E1;3.648285866E0;-3.783796310E0;8.101655006E0
2.104664524E1;3.798707485E0;-3.960051537E0;7.696126461E0
2.106436967E1;3.693488836E0;-3.996608734E0;7.712099075E0
2.108209202E1;2.432555199E0;-4.362952232E0;6.071416855E0
2.109981797E1;2.132378817E-1;-4.910073280E0;-1.837699771E0
2.111754014E1;-4.371251583E0;-6.465187073E0;-6.505937099E0
2.113526975E1;-8.464503288E0;-7.174480438E0;-4.148942947E0
2.115299082E1;-6.012501240E0;-3.085330963E0;-3.512315452E-1
2.117071537E1;-2.832729578E0;-2.713505745E0;-2.916281223E-1
2.118843931E1;7.842878997E-2;-2.242972374E0;-3.601926565E-1
2.120616343E1;9.003559351E-1;-3.777866364E-1;-1.999152660E0
2.122388670E1;2.812731862E-1;3.566074371E-1;-2.969535828E0
2.124161192E1;9.046998024E-1;1.983727932E0;-3.210950613E0
2.125933335E1;2.378485441E0;3.079045773E0;-3.982393265E0
2.127706046E1;6.690627337E-1;2.954158783E0;-4.544713974E0
2.129477280E1;-7.112880349E-1;3.527199745E0;-3.552489281E0
2.131250895E1;-1.839308500E0;4.114937305E0;-3.341123581E0
2.133023325E1;-3.159421206E0;4.284574986E0;-4.818171501E0
2.134796153E1;-4.002633572E0;5.182970524E0;-5.838910103E0
2.136568150E1;-4.451834202E0;6.060652256E0;-5.650005341E0
2.138340611E1;-4.245537758E0;6.164161682E0;-4.800157070E0
2.140113023E1;-3.851346254E0;5.273891926E0;-3.684182167E0
2.141885459E1;-3.535912514E0;1.871772289E0;1.171112299E0
2.143658170E1;-7.929429412E-1;-4.167878151E0;1.211901379E1
2.145430277E1;7.417962074E0;-1.221409988E1;1.299954414E1
2.147203013E1;9.121666908E0;-1.005927658E1;1.095563793E1
2.148975138E1;3.132312059E0;-2.278560638E0;6.541674614E0
2.150747581E1;-2.838683844E0;-4.171840668E0;1.029495239E0
2.152519987E1;-1.785811424E0;-8.064320564E0;-4.888600349E0
2.154292423E1;-3.302192390E-1;-2.644725800E0;-1.249530220E1
2.156064848E1;-2.786785603E0;6.774531364E0;-7.440608978E0
2.157837266E1;-8.903639793E0;6.134735584E0;5.845337391E0
2.159608488E1;-1.161830997E1;3.509525299E0;7.931501865E-1
2.161382175E1;-7.653501034E0;3.249980927E0;-6.878676891E0
2.163154526E1;-4.438798428E0;-3.180875778E-1;-6.816463947E0
2.164926682E1;-8.116635084E-1;-3.610976219E0;-3.468104601E0
2.166699387E1;7.531744480E0;-4.111580849E0;-2.378951311E-1
2.168470768E1;1.277249432E1;-3.402911186E0;2.103573084E0
2.170244395E1;1.032603550E1;-1.383120537E0;2.498932362E0
2.172016666E1;5.563426495E0;1.177851677E0;8.431795835E-1
2.173789066E1;9.280928373E-1;1.689585686E0;-3.561344147E0
2.175561491E1;-1.688476801E0;1.598574638E0;-2.878803253E0
2.177332474E1;-2.070357084E0;8.877162933E-1;-9.316028357E-1
2.179106345E1;-2.605948448E0;3.585901260E-1;8.363652229E-1
2.180878770E1;-2.465634346E0;4.872770309E-1;1.660445929E0
2.182651206E1;-7.800365090E-1;9.783506393E-1;-1.234679461E0
2.184423594E1;-3.603059053E-1;4.062557220E-1;1.945343494E0
2.186195994E1;-7.659223080E-1;4.195852280E-1;2.922718525E0
2.187968442E1;-3.830928206E-1;4.687356949E-1;1.668823719E0
2.189740885E1;5.215619206E-1;3.127574921E-2;1.277338505E0
2.191513291E1;1.849375486E0;1.458845139E-1;1.616515040E0
2.193285734E1;3.040331602E0;8.007335663E-1;2.763026237E0
2.195058134E1;3.729171753E0;8.141326904E-1;3.609186649E0
2.196830869E1;3.753190994E0;-5.719585419E-1;4.296106339E0
2.198602982E1;4.131167889E0;-1.450229645E0;4.692242146E0
2.200375694E1;5.806926727E0;-1.511490822E0;4.109648705E0
2.202147837E1;8.151042938E0;-1.317270279E0;2.967145920E0
2.203920249E1;8.170693398E0;-2.908273697E0;4.015386105E0
2.205692686E1;5.285966873E0;-5.292594910E0;5.384234905E0
2.207465104E1;3.195604801E0;-5.227955818E0;7.168607235E0
2.209237736E1;2.499028921E0;-4.975349426E0;9.361541748E0
2.211009946E1;-9.108291268E-1;-5.515619278E0;3.378435612E0
2.212780918E1;-5.104906559E0;-5.510436058E0;-3.394041777E0
2.214554795E1;-7.496684551E0;-4.781780243E0;-5.285922527E0
2.216326035E1;-7.377023697E0;-2.706291199E0;-5.176351070E-1
2.218099918E1;-5.863765240E0;-2.026889801E0;1.086044669E0
2.219872074E1;-3.293054819E0;-3.039155960E0;2.639559507E-1
2.221644035E1;1.440618932E-2;-1.595231056E0;-1.280929208E0
2.223416911E1;1.393198252E0;-1.524486542E-1;-3.023901939E0
2.225189665E1;9.268710613E-1;8.738937378E-1;-3.224049330E0
2.226961979E1;1.214733839E0;2.396931171E0;-3.474864721E0
2.228734190E1;2.023417473E0;3.249093056E0;-4.634088993E0
2.230506590E1;1.031200528E0;3.352504253E0;-4.112702847E0
2.232279032E1;-5.549103618E-1;3.464801788E0;-2.371975422E0
2.234050700E1;-1.511069536E0;3.862840176E0;-2.147964239E0
2.235824271E1;-2.132894993E0;4.234142303E0;-4.031256199E0
2.237596281E1;-2.897562504E0;4.536108494E0;-4.697496414E0
2.239368418E1;-3.106613636E0;5.107777119E0;-4.954626083E0
2.241141123E1;-3.238723755E0;5.426152229E0;-4.347197056E0
2.242912363E1;-3.337925673E0;4.966333866E0;-3.285442352E0
2.244686082E1;-3.110298395E0;2.621402740E0;-1.152546406E-1
2.246458378E1;-1.385854959E0;-1.767771721E0;7.566273689E0
2.248230814E1;4.088586330E0;-8.184089661E0;1.525552845E1
2.250003214E1;8.190611839E0;-9.659848213E0;1.285576248E1
2.251775810E1;4.378156185E0;-2.828292847E0;8.394748688E0
2.253547959E1;1.278513223E-1;4.825487137E-1;2.189146519E0
2.255320493E1;-1.550872087E0;1.272136688E0;-2.239900112E0
2.257091825E1;-1.253022671E0;-2.446643829E0;-2.378410339E0
2.258864188E1;-8.189215660E-1;-3.764586449E0;-4.251791000E0
2.260636600E1;-3.461155176E0;-3.709680557E0;-5.484575272E0
2.262410191E1;-4.055796146E0;-2.815532684E0;2.211533070E0
2.264182603E1;-4.445756435E0;1.148391724E0;2.970193624E0
2.265956071E1;-4.714458942E0;3.864066124E0;-4.663507938E0
2.267727482E1;-3.837226868E0;4.128592014E0;-8.107522964E0
2.269499894E1;-3.488716602E0;1.853776455E0;-7.929304600E0
2.271272306E1;-2.236012220E0;-5.309915543E-1;-5.334760666E0
2.273044712E1;1.194432974E0;-2.479028702E0;-2.134404182E0
2.274817435E1;8.155733109E0;-2.821975708E0;1.002242565E0
2.276589561E1;8.884997368E0;-1.893449783E0;3.524970055E0
2.278361808E1;3.785828114E0;5.576524734E-1;1.756717563E0
2.280134434E1;-1.827048659E-1;1.651052475E0;-7.898610234E-1
2.281905613E1;-1.862092137E0;1.768208504E0;-1.993251443E0
2.283679478E1;-2.697185993E0;1.199023247E0;-5.037478209E-1
2.285451701E1;-2.585559130E0;6.512041092E-1;6.818871498E-1
2.287224253E1;-5.613437891E-1;7.065496445E-1;5.659536123E-1
2.288996513E1;-5.734691620E-1;1.127357483E-1;4.224160194E0
2.290768912E1;5.307828784E-1;8.599023819E-1;2.240820885E0
2.292541306E1;9.343103170E-1;9.735374451E-1;9.704141617E-1
2.294313798E1;9.644052982E-1;1.529373169E0;1.498194695E0
2.296086491E1;1.020587325E0;1.121538162E0;1.961453319E0
2.297858622E1;1.441832542E0;-1.502399445E-1;2.848525763E0
2.299631040E1;1.876712561E0;-8.397560120E-1;3.418813229E0
2.301403507E1;2.130352497E0;-1.027727127E0;3.427674532E0
2.303175895E1;2.832181692E0;-2.244320869E0;3.042918921E0
2.304948026E1;5.042334557E0;-2.629252434E0;2.202814579E0
2.306720768E1;7.423307419E0;-1.434632301E0;1.311163425E0
2.308493144E1;8.045244217E0;-9.008979797E-1;1.945469379E0
2.310265910E1;5.186575413E0;-3.694761276E0;5.974352837E0
2.312038023E1;2.443135977E0;-5.547957420E0;7.671500206E0
2.313810728E1;2.908625364E0;-4.725092888E0;1.002162266E1
2.315582877E1;1.519560575E0;-5.079990387E0;5.710368633E0
2.317355283E1;-2.796877623E0;-4.300453186E0;1.422610044E0
2.319127696E1;-5.102660179E0;-3.835124016E0;-9.081816673E-1
2.320900114E1;-6.072044373E0;-3.614254951E0;-2.823298693E0
2.322672550E1;-5.163743496E0;-3.174971581E0;-1.160464168E0
2.324444956E1;-3.982486963E0;-4.114353180E0;-3.007404804E-1
2.326217387E1;-2.772267103E0;-4.091076851E0;-4.679859281E-1
2.327989829E1;-1.751583576E0;-2.016411781E0;-1.968279600E0
2.329762241E1;-7.793867588E-1;3.701467514E-1;-3.417995691E0
2.331534654E1;-1.002569050E-1;1.859561920E0;-3.160289288E0
2.333307096E1;6.198400855E-1;2.324276924E0;-2.425820827E0
2.335079221E1;1.798231363E0;2.847637653E0;-3.690427303E0
2.336851939E1;8.475759029E-1;3.002045155E0;-4.386301041E0
2.338624021E1;-1.085536122E0;3.181700706E0;-3.588526726E0
2.340396940E1;-2.238089800E0;3.578190327E0;-3.272670269E0
2.342169230E1;-2.860025406E0;3.772266388E0;-4.185674667E0
2.343941428E1;-3.102845192E0;4.330859184E0;-4.710202694E0
2.345712937E1;-3.293311357E0;5.088782310E0;-4.597585678E0
2.347486430E1;-3.425211430E0;5.936801434E0;-4.115352631E0
2.349258915E1;-3.254926920E0;5.456582069E0;-3.110456705E0
2.351031309E1;-2.661955118E0;2.605940819E0;1.303231716E0
2.352803739E1;4.155416787E-1;-1.792695999E0;1.063374138E1
2.354576157E1;6.508026123E0;-8.251411438E0;1.358623695E1
2.356348539E1;8.289889336E0;-7.094789505E0;1.026532364E1
2.358120994E1;3.478068590E0;-9.454860687E-1;6.126623154E0
2.359893418E1;-3.049714267E-1;1.862661362E0;2.376038790E0
2.361666001E1;-1.291182876E0;1.163541794E0;-3.409788609E0
2.363438267E1;-1.813341379E0;-7.918586731E-1;-7.375180244E0
2.365210685E1;-5.189636230E0;-1.395179749E0;-7.358930588E0
2.366983414E1;-8.902279854E0;-5.390750885E0;6.379964352E0
2.368755503E1;-3.687944174E0;-4.765715599E0;7.625815392E0
2.370528233E1;-1.365138292E0;-9.744281769E-1;-2.810918570E0
2.372300376E1;-1.704071164E0;9.183168411E-1;-7.091496468E0
2.374072788E1;-1.386548996E0;1.884060860E0;-7.129904747E0
2.375845225E1;-6.883759499E-1;1.609977245E0;-6.960547447E0
2.377617643E1;3.410691917E-1;-3.842658997E-1;-4.839579582E0
2.379390049E1;3.870159388E0;-1.663687706E0;-1.682406068E0
2.381162492E1;7.100339413E0;-2.220623016E0;8.182029724E-1
2.382934928E1;5.483139038E0;-1.440813065E0;4.686824679E-1
2.384707334E1;2.047914982E0;3.000860214E-1;-2.415405810E-1
2.386479746E1;-1.376622677E0;1.440066338E0;-9.973499775E-1
2.388252177E1;-2.950299740E0;2.148865700E0;3.306427717E0
2.390024601E1;-2.338443518E0;2.286362648E0;5.146943092E0
2.391796732E1;-1.146121144E0;2.306757927E0;-4.343351364E0
2.393569444E1;-1.668866873E0;1.524983406E0;1.882294774E0
2.395339835E1;-1.473036766E0;1.302251816E-1;3.431461334E0
2.397114304E1;3.135550618E-1;-1.605873108E-1;2.809065580E0
2.398886747E1;1.467496634E0;1.043558121E-1;2.318699837E0
2.400658897E1;1.849483252E0;8.897275925E-1;1.337100506E0
2.402431577E1;1.906422615E0;1.094900131E0;4.827103615E-1
2.404203544E1;1.829316854E0;5.187196732E-1;2.883651257E-1
2.405976414E1;1.400262356E0;1.417360306E-1;1.671422720E0
2.407748838E1;5.585144162E-1;-1.178538322E0;3.867243767E0
2.409520829E1;4.208440185E-1;-1.883111000E0;3.928802967E0
2.411293687E1;2.152926445E0;-1.798820496E0;2.835563183E0
2.413064957E1;4.964093208E0;-1.792614937E0;1.256472111E0
2.414838755E1;6.619490147E0;-1.512975693E0;-7.474393845E-1
2.416610954E1;4.456541061E0;-3.590343475E0;1.622356296E0
2.418383384E1;1.966308475E0;-5.621712685E0;6.170191765E0
2.420155796E1;1.869933724E0;-5.239150047E0;7.738307953E0
2.421927012E1;4.097858906E0;-3.791934967E0;7.021982193E0
2.423700669E1;5.852897644E0;-3.736052513E0;7.671342373E0
2.425473081E1;5.853090763E0;-3.156534195E0;8.291123390E0
2.427245786E1;1.865123153E0;-2.701947212E0;8.051036835E0
2.429017936E1;-4.627098083E0;-4.962971687E0;8.483709097E-1
2.430790366E1;-5.772012234E0;-4.282955170E0;-6.371639252E0
2.432562754E1;-3.507361650E0;-1.480545998E0;-6.091148376E0
2.434335184E1;-1.623102307E0;-2.239522934E-1;-7.468584180E-1
2.436107633E1;5.753885508E-1;-2.223266602E0;2.159185886E0
2.437880039E1;9.671274424E-1;-2.216649055E0;-1.418938875E0
2.439652476E1;5.955425501E-1;-1.473133087E0;-3.258757591E0
2.441424888E1;1.565422714E-1;-5.502157211E-1;-2.433972120E0
2.443197331E1;1.269918919E0;1.672446251E0;-3.382374763E0
2.444968699E1;1.832678795E0;2.616659641E0;-4.749163628E0
2.446742210E1;7.550558448E-1;2.694514275E0;-3.430680275E0
2.448514585E1;-9.263838530E-1;3.121155262E0;-2.876503229E0
2.450287003E1;-2.107248783E0;4.005803108E0;-4.170292854E0
2.452058262E1;-3.318577290E0;4.998037338E0;-5.442433357E0
2.453830930E1;-4.545975685E0;5.660562992E0;-6.065600395E0
2.455604307E1;-4.789913177E0;6.107707977E0;-5.526249886E0
2.457376572E1;-4.051395893E0;6.536809921E0;-4.699672222E0
2.459149162E1;-3.220876217E0;6.059567451E0;-3.228855133E0
2.460922007E1;-3.008346796E0;3.913428307E0;1.758341789E-1
2.462693992E1;-1.664649487E0;-7.072381973E-1;7.706041336E0
2.464466367E1;3.781790018E0;-6.868061066E0;1.438749313E1
2.466238822E1;8.080762863E0;-1.410273743E1;1.347093201E1
2.468011271E1;3.910886049E0;-7.939123154E0;8.810680389E0
2.469782468E1;-9.734249115E-2;-2.954492569E-1;3.348558426E0
2.471556120E1;-5.234451294E-1;3.789325714E0;-4.702816010E-1
2.473328532E1;-3.696882725E-1;3.927907944E0;-6.206008434E0
2.475100932E1;-3.040158033E0;1.109236717E0;-8.182773590E0
2.476873405E1;-7.429195881E0;-3.987637520E0;-6.938746452E0
2.478645817E1;-7.591306210E0;-1.205863190E1;9.114076614E0
2.480418235E1;-2.501957178E0;-3.721549988E0;4.819370270E0
2.482190635E1;-1.908313394E0;3.185442448E0;-6.556509018E0
2.483963102E1;-1.872504711E0;4.589158058E0;-9.797276497E0
2.485735258E1;-1.390114427E0;3.951704979E0;-9.566783905E0
2.487507652E1;-9.943842888E-1;1.618890762E0;-6.770688534E0
2.489280357E1;1.120862722E0;-1.494875908E0;-3.492742062E0
2.491052769E1;7.190846920E0;-3.733124733E0;-5.745903850E-1
2.492825211E1;9.549400330E0;-3.691729546E0;3.990531206E0
2.494597330E1;4.917018414E0;1.059141159E-1;3.166054726E0
2.496370390E1;3.059202731E-1;1.976039410E0;1.514212489E0
2.498142466E1;-2.164087772E0;1.753985405E0;2.332027704E-1
2.499914902E1;-2.531746149E0;1.600425720E0;3.212919235E-1
2.501687315E1;-1.716601491E0;2.240644932E0;-2.593331575E0
2.503459751E1;-2.597486019E0;1.407697678E0;4.215730667E0
2.505232157E1;-1.011520386E0;1.170330048E-1;3.982518673E0
2.507004575E1;1.236757278E0;-7.125091553E-2;1.842303753E0
2.508775846E1;1.737754345E0;6.711730957E-1;1.630744100E0
2.510549741E1;1.602220654E0;1.194918633E0;9.305412769E-1
2.512321860E1;9.086095095E-1;9.256982803E-1;7.341587543E-2
2.514094236E1;6.926511526E-1;2.473726273E-1;9.938092232E-1
2.515866740E1;5.997253656E-1;-9.695024490E-1;3.229777813E0
2.517638834E1;1.113891602E0;-2.561522484E0;6.126682281E0
2.519411790E1;2.748704195E0;-3.152397156E0;5.684651375E0
2.521184000E1;6.342596054E0;-2.795625687E0;3.496087551E0
2.522956132E1;8.952610016E0;-1.711461067E0;1.893863440E0
2.524728843E1;6.353349209E0;-2.561003685E0;5.419584751E0
2.526501261E1;3.470537186E0;-5.273409843E0;9.600303650E0
2.528273972E1;3.530845165E0;-6.362705231E0;8.276254654E0
2.530046104E1;5.352556229E0;-5.119775772E0;9.177680016E0
2.531818540E1;4.822182178E0;-4.699224472E0;7.994407654E0
2.533590983E1;1.208928347E0;-6.702855110E0;1.041331887E-1
2.535363370E1;-1.842703581E0;-6.817399025E0;-7.014294147E0
2.537135929E1;-5.005114555E0;-4.710238457E0;-5.747455597E0
2.538907066E1;-3.702141523E0;-1.245091438E0;-8.988419175E-1
2.540680351E1;-1.902563214E0;-2.418037415E0;1.136155605E0
2.542453086E1;-1.349334717E0;-3.003627777E0;-1.275446415E0
2.544225236E1;-1.897485733E0;-1.086411476E0;-3.196966171E0
2.545998234E1;-1.699273348E0;1.408811569E0;-3.968791962E0
2.547770371E1;-8.924752474E-1;3.239486694E0;-3.342521667E0
2.549542783E1;1.685516238E0;4.613624096E0;-3.019348145E0
2.551315220E1;5.409518242E0;4.482714176E0;-5.495871544E0
2.553087608E1;1.157593608E0;2.528421879E0;-4.521477222E0
2.554860044E1;-1.734320045E0;2.758412361E0;-2.728626251E0
2.556632487E1;-3.206626177E0;3.610127926E0;-3.877295017E0
2.558404917E1;-4.182799339E0;4.627214432E0;-5.600300312E0
2.560177354E1;-4.574248791E0;6.117670059E0;-5.754665852E0
2.561949473E1;-4.223895550E0;6.557220459E0;-5.080358505E0
2.563722178E1;-3.408038616E0;5.902029037E0;-3.842028379E0
2.565494620E1;-2.617785931E0;3.410977840E0;-1.220387936E0
2.567267033E1;-1.039640665E0;-1.117839813E0;5.486625671E0
2.569039463E1;3.438657999E0;-7.559977531E0;1.324746895E1
2.570811582E1;7.940895081E0;-1.079674625E1;1.386664009E1
2.572584287E1;6.326757431E0;-5.082334518E0;8.405800819E0
2.574355705E1;2.752196789E0;-8.439645767E-1;2.272764206E0
2.576129398E1;-6.768599749E-1;-1.576337814E0;9.794235229E-4
2.577901597E1;-2.033036709E0;-6.399686813E0;-4.941906929E-1
2.579672819E1;-3.307282925E0;-6.789297104E0;-5.812958717E0
2.581445371E1;-5.320263386E0;2.372741699E-1;-7.654751301E0
2.583217387E1;-1.012497807E1;2.981148720E0;2.714434147E0
2.584991660E1;-1.183967590E1;4.231150627E0;-1.606391668E0
2.586763712E1;-6.899868011E0;5.244517326E0;-9.948869705E0
2.588535844E1;-4.183023930E0;1.760426998E0;-1.082219505E1
2.590308555E1;-2.806443214E0;-1.911782265E0;-7.954653263E0
2.592080723E1;1.646923065E0;-4.400960922E0;-3.630659103E0
2.593853434E1;1.143900108E1;-4.752467155E0;1.417734027E0
2.595625834E1;1.378466034E1;-3.572827339E0;4.686430454E0
2.597398246E1;7.450701714E0;8.147306442E-1;2.388798952E0
2.599170689E1;2.597537756E0;2.340915203E0;-4.008309245E-1
2.600943101E1;-9.426220655E-1;2.409751892E0;-2.076137304E0
2.602715550E1;-2.752546310E0;1.820680141E0;-2.054149389E0
2.604486790E1;-2.773174286E0;1.342458725E0;-1.409689188E-1
2.606260386E1;-1.695748925E0;1.513845444E0;-3.060909510E0
2.608032828E1;-3.072524548E0;6.348791122E-1;4.822900772E0
2.609805228E1;-2.786324739E0;2.023925781E-1;6.561702728E0
2.611577671E1;-8.391048908E-1;9.761066437E-1;3.505966663E0
2.613350077E1;9.101120234E-1;8.400583267E-1;1.821844578E0
2.615122520E1;2.253845215E0;5.664224625E-1;1.837279320E0
2.616894932E1;3.529307842E0;-1.933193207E-2;2.050778389E0
2.618667350E1;4.207788467E0;-3.520851135E-1;2.613759756E0
2.620439780E1;3.849971294E0;-1.256006241E0;2.836839437E0
2.622212217E1;3.811158657E0;-2.526077271E0;4.104117393E0
2.623984647E1;4.761411667E0;-2.513991356E0;4.044423103E0
2.625757060E1;5.027568817E0;-2.840398788E0;4.196077347E0
2.627529502E1;4.600865364E0;-2.909346581E0;5.552035332E0
2.629301914E1;4.652862549E0;-4.610662460E0;7.370141983E0
2.631073185E1;5.667562485E0;-4.950737953E0;6.163922310E0
2.632847056E1;6.199431419E0;-4.516998291E0;7.653212070E0
2.634619541E1;2.944624662E0;-4.506858826E0;9.762800217E0
2.636391538E1;-3.563716888E0;-7.428281784E0;2.554887533E0
2.638164030E1;-6.025285721E0;-7.169487953E0;-8.444286346E0
2.639934873E1;-6.869825363E0;-4.543915749E0;-6.779728889E0
2.641709202E1;-6.678010464E0;-1.555124283E0;1.568307579E-1
2.643481339E1;-4.373858452E0;-2.609760284E0;1.884791732E0
2.645253519E1;-2.116637945E0;-2.347826004E0;-8.727010489E-1
2.647026145E1;-1.921480894E0;-4.194374084E-1;-2.431547165E0
2.648797605E1;-1.421969295E0;9.954442978E-1;-3.130273819E0
2.650570994E1;-8.811430931E-1;2.011313438E0;-2.270289421E0
2.652343442E1;2.754263639E0;3.529169083E0;-3.448643208E0
2.654115562E1;5.480455399E0;3.929677010E0;-5.286208153E0
2.655888322E1;2.534132957E0;3.136999607E0;-3.243767738E0
2.657660703E1;-4.020801783E-1;3.691044807E0;-2.375378370E0
2.659433433E1;-1.939374089E0;5.034744740E0;-3.174399614E0
2.661205582E1;-3.144610643E0;6.027685165E0;-4.686216354E0
2.662978013E1;-4.039263725E0;6.867517948E0;-5.886571407E0
2.664750449E1;-3.891937017E0;6.575281143E0;-5.322270393E0
2.666522385E1;-2.454710245E0;5.606633186E0;-4.059978485E0
2.668295145E1;-1.151603818E0;3.971129894E0;-1.935757518E0
2.670067710E1;-6.789781451E-1;-1.562471390E-1;3.755004406E0
2.671840147E1;2.056742907E0;-5.159718513E0;1.217986202E1
2.673612589E1;5.862213135E0;-9.845556259E0;1.397422123E1
2.675385001E1;6.275887012E0;-8.408331871E0;1.155387020E1
2.677157444E1;6.341798306E-1;-3.355269432E0;5.763145447E0
2.678929844E1;-3.254921198E0;-1.980657578E-1;1.586272955E0
2.680702286E1;-3.695149183E0;-2.052831650E-1;9.692573547E-2
2.682474686E1;-3.404379845E0;-2.328034401E0;-3.974942684E0
2.684247129E1;-5.383181095E0;-2.475368500E0;-8.396661758E0
2.686019541E1;-6.981300354E0;-1.306876183E0;-6.473224640E0
2.687791953E1;-9.295186996E0;-2.724466324E0;5.334124565E0
2.689564707E1;-7.359727383E0;1.788883209E-1;-1.201712489E0
2.691336851E1;-2.456675291E0;3.383405209E0;-9.232296944E0
2.693109062E1;-1.185550094E0;1.904014587E0;-1.003688526E1
2.694881046E1;-7.281402946E-1;3.620214462E-1;-7.358138084E0
2.696653147E1;1.563855886E0;-1.091210365E0;-4.084772587E0
2.698426780E1;6.952560425E0;-2.441142082E0;-1.067138195E0
2.700198978E1;1.179310799E1;-3.184040070E0;1.898789525E0
2.701970194E1;7.835201263E0;-1.056625366E0;3.418651581E0
2.703743809E1;2.511361837E0;1.634509087E0;1.740878224E0
2.705516221E1;-1.280786514E0;2.648230553E0;1.979854345E0
2.707288694E1;-3.093385935E0;2.617457390E0;2.523969173E0
2.709061100E1;-2.908343792E0;1.704788208E0;-2.619955540E-1
2.710833506E1;-1.126332641E0;1.917462826E0;-5.619636536E0
2.712605942E1;-2.160660028E0;1.219043732E0;3.481688499E0
2.714376572E1;-2.186334610E0;-9.226036072E-2;8.596766472E0
2.716150797E1;-2.890509665E-1;4.909448624E-1;4.962967873E0
2.717923222E1;1.743566513E0;6.526250839E-1;1.391342163E0
2.719695664E1;3.032723665E0;4.383630753E-1;3.828687668E-1
2.721468070E1;3.417774200E0;6.202507019E-2;1.134788275E0
2.723240513E1;3.383285046E0;-7.578077316E-1;3.232418299E0
2.725012956E1;2.789969206E0;-2.247774124E0;5.512577534E0
2.726785368E1;4.300526619E0;-3.233842850E0;4.544593811E0
2.728557804E1;6.979419231E0;-2.882201195E0;1.573464155E0
2.730330241E1;7.202248573E0;-2.604894638E0;2.801578522E0
2.732102647E1;4.665223598E0;-4.147982597E0;7.474521637E0
2.733875083E1;3.803078651E0;-5.428832054E0;7.566567421E0
2.735647526E1;4.856666088E0;-5.647443771E0;7.381911278E0
2.737420225E1;5.962870598E0;-4.396701813E0;9.504095078E0
2.739192368E1;4.522534370E0;-4.229519844E0;9.535749435E0
2.740964780E1;-1.220386744E0;-6.911865234E0;2.860127449E0
2.742737223E1;-5.757494926E0;-8.568632126E0;-7.854023933E0
2.744509122E1;-7.964766979E0;-6.445768356E0;-4.656151772E0
2.746282389E1;-7.257167816E0;-3.659237862E0;1.022573709E0
2.748054502E1;-3.611764431E0;-3.534065247E0;8.103425503E-1
2.749826737E1;-7.292883396E-1;-1.821163177E0;-2.350350380E0
2.751599357E1;-5.072566271E-1;-3.534317017E-2;-3.638831615E0
2.753370615E1;-7.469050884E-1;1.187162399E0;-3.646571636E0
2.755144456E1;-5.518115163E-1;2.574866295E0;-3.733422041E0
2.756916691E1;2.745810509E0;4.238402367E0;-4.798544407E0
2.758688908E1;3.402856112E0;4.484387875E0;-5.099557400E0
2.760461478E1;6.247860193E-1;4.499697208E0;-4.592096329E0
2.762232847E1;-1.524154067E0;5.453170300E0;-4.798841953E0
2.764006583E1;-2.992612600E0;6.171510220E0;-5.643114090E0
2.765778788E1;-4.129567623E0;6.431692600E0;-6.365741730E0
2.767551218E1;-4.678353310E0;6.678441048E0;-5.296438217E0
2.769323643E1;-4.429398537E0;6.290616035E0;-3.911499977E0
2.771095713E1;-3.486623526E0;5.117128372E0;-2.089542150E0
2.772868552E1;-2.165105820E0;7.018928528E-1;6.655422211E0
2.774640916E1;2.903190136E0;-7.402217865E0;1.640525055E1
2.776413334E1;8.085779190E0;-1.336505795E1;1.364488029E1
2.778185801E1;4.701695919E0;-6.187824249E0;8.990956306E0
2.779958115E1;-3.419915438E-1;6.802806854E-1;3.011103630E0
2.781730662E1;-2.350193739E0;2.724088669E0;1.850389004E0
2.783503068E1;-1.615688920E0;-2.797045708E0;-1.284772277E0
2.785275785E1;-3.473908186E0;-5.478238106E0;-8.028513908E0
2.787047965E1;-7.163744926E0;-4.140061378E0;-7.865853310E0
2.788820853E1;-1.004349041E1;-3.894045830E0;6.779586315E0
2.790592790E1;-7.466426373E0;2.062065601E0;-3.166044712E0
2.792365196E1;-3.957070827E0;5.542836189E0;-1.040609074E1
2.794137687E1;-1.849883080E0;3.698351383E0;-1.089911842E1
2.795910093E1;-1.348564148E0;5.813674927E-1;-8.213056564E0
2.797682499E1;6.691212654E-1;-1.883823395E0;-5.751348495E0
2.799454942E1;6.840466022E0;-4.395729065E0;-3.396903038E0
2.801227384E1;1.385315514E1;-5.462292671E0;-6.511830091E-1
2.803000077E1;9.509073257E0;-2.898486137E0;3.773138046E0
2.804772233E1;3.307083607E0;1.374670029E0;3.857434034E0
2.806544663E1;-1.004854083E0;1.826234818E0;2.436129093E0
2.808317069E1;-3.651099682E0;2.202607155E0;4.844749570E-1
2.810088322E1;-4.443790913E0;2.124508381E0;-9.283989668E-2
2.811862223E1;-3.589210510E0;2.154697895E0;-1.883040071E0
2.813634367E1;-2.062489033E0;1.365370750E0;1.351167202E0
2.815406498E1;-1.094350934E0;5.937232971E-1;4.604604244E0
2.817179215E1;3.407315910E-1;1.038720131E0;3.779074192E0
2.818949973E1;2.249727011E0;9.867639542E-1;2.320213795E0
2.820724180E1;2.742189407E0;5.668687820E-1;1.983293176E0
2.822496519E1;2.737280846E0;-4.050426483E-1;1.643494606E0
2.824268546E1;2.965450525E0;-7.761697769E-1;2.272604942E0
2.826041349E1;3.455592394E0;-1.448611259E0;4.306600571E0
2.827813761E1;3.309212685E0;-3.317731857E0;5.159141064E0
2.829586228E1;6.107060909E0;-3.234243393E0;3.597780704E0
2.831358659E1;8.350731850E0;-2.576453209E0;3.267788649E0
2.833131058E1;6.226096153E0;-2.280924797E0;6.106208801E0
2.834903526E1;3.701272726E0;-4.456598282E0;9.695086479E0
2.836675065E1;5.125484943E0;-4.761232376E0;8.410145760E0
2.838448386E1;6.362018108E0;-3.959208488E0;9.140493393E0
2.840220811E1;4.609509945E0;-4.420457840E0;7.909229279E0
2.841993192E1;2.832093239E-1;-6.549033165E0;-2.988766432E-1
2.843764500E1;-2.274845362E0;-8.043340683E0;-6.927586079E0
2.845538358E1;-6.509595394E0;-7.591660500E0;-5.431653976E0
2.847310508E1;-5.325176239E0;-4.068066597E0;8.995008469E-1
2.849083463E1;-2.497228622E0;-4.288219452E0;9.372100234E-1
2.850855357E1;-1.369111180E0;-3.993826866E0;-2.305140257E0
2.852627793E1;-1.661879659E0;-1.591095924E0;-3.596451998E0
2.854400199E1;-2.475910187E0;7.463111877E-1;-3.666966438E0
2.856172642E1;-1.910717010E0;3.120798111E0;-3.522940874E0
2.857945072E1;7.707331181E-1;4.547478676E0;-4.047089100E0
2.859717435E1;5.444978714E0;4.560595989E0;-4.449388981E0
2.861489957E1;2.153744936E0;3.197543144E0;-4.323732853E0
2.863262363E1;-9.055780172E-1;3.663381577E0;-3.572833061E0
2.865034800E1;-2.529949427E0;4.924848080E0;-4.720812798E0
2.866807243E1;-3.975203514E0;6.205099106E0;-6.200125694E0
2.868579661E1;-4.772162437E0;7.351087570E0;-6.575527191E0
2.870352085E1;-4.256972313E0;7.688415051E0;-5.318855762E0
2.872124516E1;-2.957055092E0;6.450706005E0;-3.774087667E0
2.873896934E1;-2.361828804E0;2.368412971E0;2.162854910E0
2.875668174E1;1.139279604E0;-3.959872246E0;1.187598610E1
2.877442106E1;7.683592319E0;-1.059524727E1;1.331194592E1
2.879214243E1;7.337816238E0;-1.035306644E1;1.041713619E1
2.880986722E1;2.070563316E0;-2.631473541E0;5.074965477E0
2.882759098E1;-1.737818122E0;1.352766037E0;2.249509335E0
2.884530332E1;-2.317466021E0;2.445186615E0;5.176806450E-2
2.886304301E1;-1.278519273E0;1.852161407E0;-5.931771278E0
2.888076383E1;-4.196009636E0;1.917647362E0;-8.596082687E0
2.889848356E1;-1.060978127E1;-4.011006355E0;-7.390747070E0
2.891621256E1;-1.213856792E1;-1.530356216E1;1.000706100E1
2.893393400E1;-1.428383470E0;-5.211503983E0;1.558401585E-1
2.895166392E1;-2.525886893E-1;3.108005524E0;-5.371453285E0
2.896938511E1;-6.638895869E-1;5.569154263E0;-8.412283897E0
2.898710978E1;-1.773021072E-1;5.536862373E0;-9.109925270E0
2.900483366E1;-4.799863696E-1;1.940155506E0;-7.277397633E0
2.902255772E1;6.641503572E-1;-1.881809235E0;-4.361940384E0
2.904027140E1;5.809505463E0;-3.318181992E0;-1.353957653E0
2.905800388E1;1.016207027E1;-2.737322807E0;8.770877123E-1
2.907573106E1;5.900423527E0;-1.144132614E-1;4.251864433E0
2.909345524E1;-7.771232724E-2;1.561482430E0;5.312747478E0
2.911117954E1;-2.913968563E0;1.907632351E0;3.903927326E0
2.912890659E1;-2.690476656E0;2.240361691E0;-2.907075882E-1
2.914662815E1;-4.430309832E-1;2.898185730E0;-7.622155190E0
2.916435502E1;-2.498541117E0;6.260032654E-1;3.717776299E0
2.918207652E1;-3.177464008E0;-1.019246101E0;8.091701508E0
2.919980082E1;-1.575879455E-1;1.525611877E-1;5.366673946E0
2.921752512E1;2.016953230E0;8.500404358E-1;1.413488269E0
2.923524937E1;3.172782183E0;7.230472565E-1;-2.433536053E-1
2.925297379E1;3.476900816E0;2.328424454E-1;3.838880062E-1
2.927069816E1;3.177373409E0;-8.158226013E-1;3.501913548E0
2.928842222E1;3.313623428E0;-2.123995781E0;6.919664383E0
2.930614658E1;3.790089607E0;-3.433510780E0;5.942531586E0
2.932387095E1;5.744553566E0;-2.745265007E0;4.030494690E0
2.934159513E1;7.290752888E0;-1.833050728E0;3.458005428E0
2.935931944E1;6.098164082E0;-1.644747734E0;5.969053745E0
2.937704063E1;4.968132019E0;-4.290726662E0;8.327919960E0
2.939476798E1;5.556709290E0;-5.603125572E0;7.070306778E0
2.941247532E1;6.329175949E0;-5.167421341E0;8.723619461E0
2.943021952E1;5.037329197E0;-4.185025215E0;9.830917358E0
2.944792936E1;2.327819765E-1;-7.456178665E0;2.313710451E0
2.946566392E1;-3.058102369E0;-9.181719780E0;-9.543574333E0
2.948338926E1;-7.692408085E0;-8.219605446E0;-7.966121197E0
2.950109855E1;-6.656412125E0;-3.557188034E0;-1.049614429E0
2.951884104E1;-3.658475161E0;-3.598927498E0;2.275896072E0
2.953656236E1;-1.753783464E0;-3.502616882E0;-1.156860113E0
2.955428440E1;-1.446831942E0;-4.114799500E-1;-3.497273207E0
2.957201060E1;-1.598920345E0;1.895672798E0;-3.520718098E0
2.958973466E1;-1.529157043E0;3.188940048E0;-2.582854271E0
2.960745994E1;2.374032497E0;4.701903343E0;-3.998525143E0
2.962518351E1;3.859645605E0;4.527015686E0;-5.314195633E0
2.964290910E1;1.452381611E0;4.485538483E0;-5.087325573E0
2.966063187E1;-8.483089805E-1;5.072658539E0;-4.586215973E0
2.967835630E1;-2.261621714E0;5.635708809E0;-5.233733177E0
2.969608360E1;-3.468399286E0;6.106281757E0;-5.715297699E0
2.971380509E1;-4.318474293E0;6.363995552E0;-5.352568150E0
2.973153068E1;-4.119452477E0;6.603856087E0;-4.558854580E0
2.974925352E1;-3.422219276E0;5.491014957E0;-3.301130772E0
2.976697495E1;-2.174904823E0;2.453390598E0;1.165309906E0
2.978470206E1;1.130628824E0;-3.587946892E0;1.307535458E1
2.980242631E1;6.594391823E0;-1.184729099E1;1.521176910E1
2.982015055E1;7.804648399E0;-1.013173580E1;1.224276638E1
2.983787492E1;3.555878162E0;-2.681118011E0;5.933806419E0
2.985559922E1;-5.799293518E-1;1.712647438E0;3.563128710E0
2.987332359E1;-7.684897184E-1;4.120512962E0;1.230894804E0
2.989104783E1;-4.218285680E-1;2.578747749E0;-8.657885551E0
2.990877213E1;-5.037930489E0;1.634798050E-1;-8.367702484E0
2.992649650E1;-1.139336109E1;-6.239177704E0;-5.111346245E0
2.994420866E1;-1.158811951E1;-1.698778915E1;1.184026623E1
2.996194486E1;-3.825985670E0;-3.104884148E0;-2.916367054E0
2.997965910E1;-2.972184181E0;5.263718605E0;-8.660148621E0
2.999739664E1;-2.787719488E0;6.161194801E0;-1.167647362E1
3.001511778E1;-2.213838577E0;4.197887897E0;-1.032488823E1
3.003284074E1;-1.911729097E0;7.900123596E-1;-8.341561317E0
3.005056632E1;2.072929144E-1;-2.869436264E0;-5.172965527E0
3.006827634E1;6.765432358E0;-5.168182373E0;-1.889857531E0
3.008601487E1;1.473054123E1;-5.436185837E0;6.036794782E-1
3.010373911E1;8.939947128E0;-1.488040924E0;5.923549652E0
3.012146488E1;1.741265059E0;1.855514526E0;6.334661961E0
3.013918760E1;-2.357879639E0;2.741579533E0;4.316793442E0
3.015691178E1;-3.831371546E0;2.234070301E0;4.904338121E-1
3.017463639E1;-2.795512676E0;3.082652569E0;-4.489714146E0
3.019236045E1;-7.479077578E-1;2.640196800E0;-3.029670238E0
3.021008476E1;-2.844915390E0;-1.037788391E-1;7.936073780E0
3.022780924E1;-7.625153065E-1;-1.802453995E-1;6.863074303E0
3.024553306E1;1.492807150E0;1.665496826E-2;4.245174885E0
3.026325773E1;2.337653399E0;6.141796112E-1;2.655716419E0
3.028098185E1;3.620521069E0;1.148654938E0;1.281611919E-1
3.029870341E1;3.911486149E0;-5.788612366E-2;3.158347607E-1
3.031643052E1;3.923252106E0;-1.553477287E0;2.192498446E0
3.033415580E1;4.094245434E0;-1.998466492E0;6.176852226E0
3.035187962E1;4.795979500E0;-2.567288399E0;6.115596771E0
3.036959165E1;6.870255470E0;-2.702816963E0;1.943020701E0
3.038733066E1;6.449754238E0;-2.131853104E0;1.301304221E0
3.040505186E1;3.393805265E0;-3.628317833E0;7.044524193E0
3.042277622E1;3.739103556E0;-4.968163490E0;7.874243736E0
3.044049760E1;5.474897861E0;-5.147593498E0;5.857312202E0
3.045822489E1;5.980863571E0;-5.268585205E0;7.418119431E0
3.047595206E1;5.300755978E0;-4.469586372E0;1.083555984E1
3.049367344E1;8.737617731E-1;-6.970135689E0;5.479577541E0
3.051140214E1;-4.648288250E0;-9.271509171E0;-6.610670567E0
3.052912199E1;-6.732128143E0;-6.802431107E0;-7.323026180E0
3.054683463E1;-6.323627949E0;-2.479443550E0;-2.029366255E0
3.056457041E1;-4.169925690E0;-2.000119209E0;2.852537155E0
3.058229502E1;-2.439973831E0;-2.745551109E0;-4.405058622E-1
3.060001615E1;-1.958244085E0;-9.656972885E-1;-3.995516300E0
3.061774351E1;-8.498531580E-1;9.488754272E-1;-4.593636513E0
3.063544956E1;-6.388185024E-1;2.267145157E0;-3.919130325E0
3.065319431E1;2.852026224E0;3.978491783E0;-2.742007971E0
3.067091642E1;3.782059908E0;3.887347221E0;-4.776264191E0
3.068863834E1;1.073484540E0;3.434226513E0;-5.175436497E0
3.070636759E1;-1.178609490E0;4.413053989E0;-4.158987045E0
3.072408378E1;-2.856850624E0;5.405457497E0;-5.163699627E0
3.074181632E1;-4.137628078E0;6.501237869E0;-6.022338867E0
3.075953776E1;-4.811387062E0;7.155105591E0;-6.173420906E0
3.077726200E1;-3.830562353E0;6.796463013E0;-4.910640717E0
3.079498618E1;-2.413138866E0;5.893121243E0;-3.340807915E0
3.081269425E1;-1.493255138E0;3.627312660E0;-1.467788219E-1
3.083043498E1;-2.448148578E-1;-1.682835579E0;9.709444046E0
3.084815910E1;5.094127655E0;-8.408823013E0;1.659179688E1
3.086588310E1;9.209678650E0;-1.265332222E1;1.394733620E1
3.088360752E1;5.789227962E0;-6.228465080E0;9.883621216E0
3.090132310E1;1.118737936E0;9.727439880E-1;4.407433033E0
3.091905631E1;-3.179795444E-1;3.763313293E0;8.907704353E-1
3.093678263E1;-2.004618168E0;2.770196915E0;-1.014473820E1
3.095450474E1;-7.493516445E0;-1.185464859E-1;-7.591856003E0
3.097222923E1;-1.296492481E1;-6.872799873E0;-5.710598469E0
3.098995322E1;-6.908827305E0;-1.294462299E1;6.084965706E0
3.100767765E1;-1.716887236E0;-2.808409691E0;-2.858448029E-2
3.102540171E1;-8.491873741E-1;4.235187531E0;-6.360087395E0
3.104312608E1;-1.394264936E0;4.890693665E0;-1.091368866E1
3.106085001E1;-1.535949945E0;3.239734650E0;-1.026348686E1
3.107857450E1;-9.712055326E-1;5.219011307E-1;-7.252582550E0
3.109629893E1;1.509987593E0;-2.543045044E0;-3.334459066E0
3.111402329E1;7.223662853E0;-4.079452515E0;-4.109136462E-1
3.113175150E1;1.115618896E1;-3.723860741E0;3.088328600E0
3.114947160E1;5.466950893E0;4.913358688E-1;4.994259834E0
3.116719590E1;-6.955614090E-1;1.787752151E0;3.890534878E0
3.118492027E1;-4.180522442E0;2.016879559E0;5.808812380E-2
3.120264439E1;-4.246605396E0;2.675763607E0;-1.177878618E0
3.122037125E1;-3.064198732E0;2.974287033E0;-3.175084352E0
3.123809342E1;-2.004075050E0;1.929608345E0;2.635090351E0
3.125581547E1;-7.022736073E-1;6.739540100E-1;4.666079521E0
3.127354160E1;1.066381931E0;8.066196442E-1;2.463908672E0
3.129124827E1;2.033994675E0;7.101154327E-1;2.503204346E0
3.130899308E1;2.389127731E0;5.195188522E-1;2.159377098E0
3.132671452E1;2.804266453E0;-1.628456116E-1;1.967166781E0
3.134443559E1;3.427568913E0;-1.023455620E0;2.799226999E0
3.136216282E1;3.822669029E0;-1.855396271E0;3.878407001E0
3.137988682E1;3.139777184E0;-2.523278236E0;4.613984585E0
3.139761118E1;3.857913017E0;-2.641206741E0;5.004287720E0
3.141533585E1;7.413563728E0;-1.618888855E0;3.753503323E0
3.143306126E1;8.826840401E0;-1.343512535E0;3.213014364E0
3.145078410E1;6.457114220E0;-3.308753967E0;5.996573448E0
3.146850816E1;5.295248985E0;-4.918241501E0;8.403614044E0
3.148623576E1;7.070029259E0;-5.075909615E0;1.010552597E1
3.150395713E1;4.744280338E0;-6.414085388E0;6.620693207E0
3.152168015E1;4.780076742E-1;-5.798134804E0;2.703403711E0
3.153940562E1;-1.768041849E-1;-5.474074364E0;-4.782203197E0
3.155712192E1;-4.401792526E0;-6.305039406E0;-5.677227974E0
3.157485264E1;-8.580429077E0;-6.827442169E0;-3.078484058E0
3.159257822E1;-4.417520046E0;-2.759515762E0;1.115607262E0
3.161030265E1;-2.881929874E0;-3.485849380E0;2.872393131E-1
3.162802702E1;-1.243713737E0;-1.789213181E0;-1.678663492E0
3.164575089E1;-8.092153072E-1;1.270198822E-1;-3.063296795E0
3.166347526E1;-2.387115061E-1;1.325579643E0;-2.636702776E0
3.168119956E1;2.156649113E0;3.212640285E0;-2.713032246E0
3.169892368E1;5.734771729E0;4.330572605E0;-4.995415688E0
3.171664805E1;3.193326950E0;3.240787983E0;-4.153356075E0
3.173437211E1;-3.111512214E-2;3.589824677E0;-3.103051186E0
3.175209654E1;-1.970413923E0;4.884006023E0;-3.453159332E0
3.176982096E1;-3.345786333E0;5.930239201E0;-4.769263744E0
3.178754411E1;-4.185584545E0;6.734609604E0;-6.016024590E0
3.180526945E1;-4.359779835E0;7.032689095E0;-6.250417709E0
3.182299125E1;-3.645203590E0;6.493524551E0;-4.748543262E0
3.184071787E1;-2.829299450E0;5.232715607E0;-3.745211124E0
3.185842588E1;-2.946885109E0;1.706136703E0;4.427280426E-1
3.187616886E1;-1.085367918E0;-3.218363762E0;9.183523178E0
3.189389079E1;5.144687176E0;-9.607118607E0;1.643468285E1
3.191161527E1;1.029871464E1;-1.201327324E1;1.462852669E1
3.192933946E1;6.805908203E0;-4.276408195E0;8.484889984E0
3.194706315E1;2.367538214E0;9.136800766E-1;1.275126219E0
3.196478751E1;6.128076911E-1;3.645636082E0;-2.598021269E0
3.198251182E1;-1.220448732E0;1.892598152E0;-7.446080685E0
3.200023588E1;-6.934188843E0;-2.517693520E0;-6.418404579E0
3.201796024E1;-1.212632847E1;-7.984381676E0;-2.102764606E0
3.203567320E1;-9.497990608E0;-1.048834229E1;1.008462238E1
3.205340897E1;-4.525671959E0;2.119731903E-1;-2.389898777E0
3.207113316E1;-3.333777666E0;4.571839333E0;-9.154661179E0
3.208885728E1;-2.820890427E0;3.947991371E0;-1.178779411E1
3.210658176E1;-2.726400375E0;1.405716896E0;-1.047742558E1
3.212430552E1;-2.048589945E0;-7.272529602E-1;-7.017111778E0
3.214202915E1;2.165999174E0;-2.487423897E0;-3.563329697E0
3.215975431E1;9.381318092E0;-3.406189919E0;-1.192014933E0
3.217748118E1;1.243179798E1;-3.644109726E0;2.609690428E-1
3.219520298E1;7.119856834E0;3.759117126E-1;5.626655102E0
3.221292704E1;8.323360682E-1;1.940704346E0;5.470882416E0
3.223065122E1;-2.479818821E0;1.876822472E0;4.813315392E0
3.224836582E1;-3.033973694E0;1.356765747E0;1.294178009E0
3.226608842E1;-1.909972310E0;1.807126045E0;-4.942078590E0
3.228382645E1;-1.898489237E0;2.175779343E0;-7.100709677E-1
3.230155088E1;-2.599907160E0;-8.355903625E-2;6.602270603E0
3.231927226E1;2.887673378E-1;6.157159805E-1;6.158248425E0
3.233699668E1;2.116638660E0;5.316648483E-1;4.167672634E0
3.235472062E1;3.351336479E0;4.499292374E-1;1.488526225E0
3.237244523E1;4.802252293E0;7.651662827E-1;-1.270549297E-1
3.239016636E1;5.054707527E0;5.158052444E-1;6.573383808E-1
3.240789341E1;4.571163177E0;-1.034877777E0;2.881796837E0
3.242560612E1;2.985779047E0;-3.408755302E0;7.614085197E0
3.244334287E1;3.996337414E0;-3.009553909E0;5.384613037E0
3.246106651E1;4.816811085E0;-2.901469231E0;2.116431713E0
3.247878898E1;3.309178829E0;-2.895560265E0;4.384692669E0
3.249651475E1;3.674375057E0;-4.204533577E0;7.733658791E0
3.251423722E1;5.874318123E0;-5.404014587E0;7.309115410E0
3.253196464E1;6.604760170E0;-4.941250801E0;6.228816509E0
3.254968766E1;6.969395161E0;-4.362000465E0;9.902233124E0
3.256740922E1;5.409734726E0;-4.081630707E0;1.020511055E1
3.258513584E1;1.026320457E-2;-7.348083496E0;1.691452384E0
3.260285996E1;-3.586159945E0;-8.309996605E0;-8.627950668E0
3.262058701E1;-7.791175842E0;-7.496811867E0;-8.432163239E0
3.263829673E1;-5.236295700E0;-1.496944427E0;-2.097621441E0
3.265602885E1;-2.419551134E0;-1.486612320E0;2.171710014E0
3.267375718E1;-1.446514368E0;-2.765215874E0;-6.040447354E-1
3.269146476E1;-9.285002351E-1;-4.522447586E-1;-3.638311148E0
3.270920548E1;-7.070613503E-1;1.404007912E0;-3.864090919E0
3.272692985E1;1.758727312E0;3.000783443E0;-3.734372616E0
3.274465415E1;4.942811012E0;3.806283474E0;-4.006843090E0
3.276237821E1;2.738727570E0;2.990945339E0;-4.180483341E0
3.278010239E1;-1.143516749E-1;3.526471615E0;-3.359209776E0
3.279782676E1;-2.006588221E0;4.651779175E0;-4.700237274E0
3.281555772E1;-3.503867388E0;5.804250717E0;-6.201027870E0
3.283327537E1;-4.525923252E0;6.456816196E0;-6.339384556E0
3.285099943E1;-4.376073360E0;6.711099625E0;-5.681290627E0
3.286872379E1;-3.436809063E0;6.473093987E0;-4.148429871E0
3.288644810E1;-2.654149532E0;6.005812168E0;-3.179127216E0
3.290417216E1;-2.595980406E0;3.221471786E0;1.339652538E-1
3.292189579E1;-6.425430775E-1;-2.281215668E0;1.038335037E1
3.293962070E1;6.185311794E0;-1.066178989E1;1.641686821E1
3.295734507E1;1.017032051E1;-1.394896030E1;1.229674149E1
3.297506919E1;6.108722210E0;-3.989910126E0;7.969639778E0
3.299278165E1;-1.092566848E-1;6.121091843E-1;3.191779137E0
3.301052183E1;-3.396124840E0;3.136920929E-1;-1.938562393E-1
3.302824186E1;-2.780909538E0;-3.412469864E0;-4.207715988E0
3.304596415E1;-4.200911999E0;-5.124551773E0;-8.846585274E0
3.306369028E1;-5.905911446E0;-3.929580688E0;-4.198112011E0
3.308139805E1;-7.533510685E0;-1.508481979E0;5.953822613E0
3.309914182E1;-7.923474789E0;3.092536926E0;-2.343648434E0
3.311686320E1;-5.169902802E0;5.141270638E0;-8.876818657E0
3.313458714E1;-2.974540472E0;3.522488594E0;-1.084672260E1
3.315231144E1;-1.861895442E0;6.389398575E-1;-7.784309387E0
3.317003941E1;1.323340893E0;-1.957921028E0;-4.672919273E0
3.318776316E1;9.023078918E0;-4.278233528E0;-2.532856703E0
3.320548411E1;1.560111237E1;-4.769030571E0;1.186436415E0
3.322320579E1;8.852100372E0;-1.123828888E0;4.521216393E0
3.324093272E1;2.348544836E0;1.706296921E0;3.400624990E0
3.325864512E1;-2.009555340E0;1.995865822E0;1.441747904E0
3.327638230E1;-3.503648758E0;2.568422318E0;2.453586459E-1
3.329410532E1;-2.951867580E0;1.752514839E0;4.099311233E-1
3.331182944E1;-9.912702441E-1;1.509584427E0;-5.373313904E0
3.332955387E1;-1.465192914E0;9.795560837E-1;1.946592808E0
3.334727067E1;-1.413320899E0;-1.356821060E-1;5.732670307E0
3.336500205E1;-4.044234753E-3;8.459491730E-1;3.770077229E0
3.338271470E1;1.667182207E0;4.540386200E-1;2.467851400E0
3.340045078E1;2.934252262E0;-4.339389801E-1;2.126165152E0
3.341817490E1;3.830145359E0;-5.315408707E-1;2.302441359E0
3.343589945E1;4.055651188E0;-4.116401672E-1;2.633003235E0
3.345362363E1;3.874158859E0;-1.189265251E0;4.258327484E0
3.347134757E1;3.792863846E0;-2.856509209E0;5.413495064E0
3.348907194E1;6.255836487E0;-2.385222435E0;3.600951672E0
3.350679606E1;8.342359543E0;-1.355736732E0;2.016267300E0
3.352452012E1;6.059940338E0;-1.808645248E0;5.381221771E0
3.354224479E1;4.073153019E0;-4.541717529E0;8.170855522E0
3.355996879E1;5.249620438E0;-5.136710167E0;7.245510101E0
3.357769321E1;6.998653412E0;-4.169635773E0;9.094120979E0
3.359541764E1;5.896153450E0;-4.871890068E0;9.803629875E0
3.361313810E1;4.987818599E-1;-6.953443527E0;-5.274138451E-1
3.363086582E1;-3.849144459E0;-7.713374138E0;-6.266847134E0
3.364858561E1;-8.444126129E0;-7.460981369E0;-4.201433182E0
3.366631602E1;-7.184359074E0;-3.690901756E0;1.356013417E0
3.368402256E1;-4.253048420E0;-2.773834229E0;1.268766403E0
3.370176176E1;-2.333558321E0;-3.394745827E0;-2.321514130E0
3.371948716E1;-5.335031152E-1;-1.218750000E0;-3.127258301E0
3.373721110E1;-6.014770269E-2;6.230220795E-1;-3.060428143E0
3.375493552E1;-3.470791578E-1;1.645902634E0;-2.085623980E0
3.377265983E1;3.036796331E0;3.664842606E0;-2.861580133E0
3.379038383E1;4.600519657E0;3.931161880E0;-5.479871273E0
3.380810825E1;1.321860790E0;3.610976696E0;-4.625594616E0
3.382581773E1;-1.188623905E0;4.370600700E0;-3.498311281E0
3.384355680E1;-2.404461622E0;5.325422287E0;-4.226949692E0
3.386128110E1;-3.195781231E0;5.715507507E0;-5.381027699E0
3.387900516E1;-3.618971109E0;6.127887249E0;-5.391591072E0
3.389672959E1;-3.461038828E0;6.370389938E0;-4.504909039E0
3.391445371E1;-2.610162973E0;6.188245773E0;-3.534543037E0
3.393216654E1;-1.911296844E0;4.866971970E0;-2.151250124E0
3.394989268E1;-1.218109846E0;1.327219963E0;3.169683456E0
3.396762662E1;1.081579447E0;-5.269005775E0;1.342957211E1
3.398535068E1;5.281959057E0;-1.154645729E1;1.378917122E1
3.400307285E1;5.921339989E0;-6.736692429E0;1.111037064E1
3.402079893E1;1.858683348E0;-6.867456436E-1;5.554469109E0
3.403852354E1;-4.698478281E-1;2.219269753E0;2.528524637E0
3.405624772E1;-1.523689866E0;-5.263137817E-1;7.259428501E-1
3.407397202E1;-2.084169388E0;-5.301172256E0;-3.179450512E0
3.409169651E1;-6.680753231E0;-6.617649078E0;-7.268561840E0
3.410942051E1;-7.049451828E0;-3.500133514E0;3.352138996E-1
3.412714469E1;-6.877646923E0;5.491962433E-1;9.006805420E-1
3.414486900E1;-6.451562405E0;3.156014919E0;-5.970754147E0
3.416259348E1;-3.565030575E0;3.845900536E0;-9.849801064E0
3.418031431E1;-2.015356302E0;1.670501709E0;-8.773940086E0
3.419804166E1;-7.236364484E-1;-4.957742691E-1;-6.114467144E0
3.421575913E1;3.386509418E0;-3.037888527E0;-4.340542793E0
3.423349351E1;9.631613731E0;-4.318313599E0;-2.636874676E0
3.425121476E1;1.192847157E1;-3.845432281E0;-4.977699220E-1
3.426893961E1;6.962136269E0;-6.961097717E-1;2.959416389E0
3.428666294E1;1.749897957E0;1.512217522E0;3.936194181E0
3.430438981E1;-1.738135815E0;1.812974930E0;3.675214291E0
3.432211149E1;-2.964323521E0;2.071475029E0;2.083892345E0
3.433982407E1;-2.090229034E0;2.390500069E0;-6.270885468E-2
3.435755723E1;-1.396636724E0;1.991007805E0;-2.932858467E0
3.437528458E1;-1.856606722E0;1.214241982E0;2.968293667E0
3.439300840E1;-7.508561015E-1;1.965236664E-2;5.359456539E0
3.441073576E1;9.351577163E-1;1.806840897E-1;4.842300415E0
3.442845396E1;1.945353270E0;7.806949615E-1;2.361938477E0
3.444618144E1;2.811105251E0;8.026685715E-1;1.660761833E-1
3.446390562E1;3.128825188E0;3.617362976E-1;5.147505999E-1
3.448162974E1;3.376738787E0;-8.080434799E-1;2.532823801E0
3.449935709E1;3.886604309E0;-1.896348000E0;5.503730774E0
3.451707853E1;3.756694078E0;-2.644344330E0;5.900953293E0
3.453480119E1;5.608513832E0;-2.502232552E0;4.006105423E0
3.455252696E1;8.188608170E0;-2.006921768E0;2.787282705E0
3.457025132E1;8.552610397E0;-1.788762093E0;3.401483536E0
3.458797550E1;5.613174438E0;-4.642854691E0;6.794359207E0
3.460568864E1;4.126071453E0;-6.595911980E0;6.834277153E0
3.462342686E1;6.089985371E0;-5.636991501E0;8.764923096E0
3.464114829E1;4.490394592E0;-4.957324982E0;7.631042004E0
3.465886967E1;-1.582076550E-1;-5.762006760E0;1.640875101E0
3.467659684E1;-3.129446983E0;-6.543675423E0;-6.102769852E0
3.469432096E1;-5.651255608E0;-5.715887070E0;-5.471818924E0
3.471204526E1;-5.922834396E0;-3.542965889E0;-1.153398633E0
3.472976963E1;-2.610626698E0;-3.091346741E0;1.733474970E0
3.474749088E1;-9.972047806E-1;-2.648162842E0;-8.922814131E-1
3.476521787E1;-9.148857594E-1;-5.788974762E-1;-3.252456665E0
3.478293058E1;-6.699136496E-1;9.186048508E-1;-3.092918396E0
3.480066959E1;-9.218263626E-1;1.804134369E0;-2.776179075E0
3.481839121E1;-4.263456166E-1;2.673105240E0;-2.074138880E0
3.483611210E1;3.039030313E0;4.150210381E0;-4.030362129E0
3.485383946E1;3.407312155E0;4.006297112E0;-5.619648933E0
3.487155485E1;3.804036677E-1;3.561902523E0;-4.450629234E0
3.488928983E1;-1.683759212E0;4.240505219E0;-3.917462349E0
3.490701237E1;-3.196685791E0;4.837860107E0;-4.056180954E0
3.492473637E1;-3.985813379E0;5.420988083E0;-4.570764542E0
3.494246085E1;-3.719843388E0;6.034103394E0;-4.585551739E0
3.496017320E1;-3.203830481E0;5.776000977E0;-3.543551683E0
3.497790916E1;-2.576771975E0;4.835316658E0;-2.227794170E0
3.499563334E1;-1.888450265E0;1.937784195E0;1.663778067E0
3.501335502E1;9.152869582E-1;-3.377839088E0;1.067993641E1
3.503108195E1;6.988308430E0;-9.645587921E0;1.354676056E1
3.504880723E1;7.927887917E0;-8.266357422E0;9.930448532E0
3.506653037E1;3.909297466E0;-1.266131401E0;5.054668427E0
3.508425480E1;-6.962629557E-1;1.714183807E0;3.147727966E0
3.510197794E1;-2.727854013E0;2.323765278E0;1.230240107E0
3.511970347E1;-2.317923546E0;6.256628036E-1;-1.220075011E0
3.513741587E1;-3.239085913E0;-1.449382782E0;-3.010207176E0
3.515515299E1;-6.651222706E0;-5.338121414E0;-4.722734451E0
3.517287638E1;-6.298729420E0;-1.027105618E1;1.019747257E0
3.519060337E1;-3.246108532E0;-5.343194962E0;1.085632801E0
3.520832487E1;-4.206869602E0;3.789777756E0;-3.429179907E0
3.522604911E1;-5.036816597E0;5.782557011E0;-8.115079880E0
3.524377329E1;-4.266707420E0;4.529850006E0;-9.234203339E0
3.526148112E1;-2.592179775E0;2.513035297E0;-7.454602718E0
3.527922459E1;-8.924207687E-1;-3.819208145E-1;-4.810585976E0
3.529694614E1;4.071195126E0;-3.712726593E0;-3.346016169E0
3.531467027E1;1.196021843E1;-5.529291153E0;-1.739608645E0
3.533239463E1;1.197952366E1;-3.315403938E0;2.415006161E0
3.535011875E1;4.810561180E0;1.701448441E0;4.721897125E0
3.536784318E1;-8.866044283E-1;1.659882545E0;4.100205421E0
3.538556748E1;-3.600118160E0;1.475445747E0;3.136184216E0
3.540328709E1;-2.635479450E0;1.552774429E0;1.731341839E0
3.542101585E1;-1.252045870E0;1.775081635E0;-3.941117525E0
3.543874302E1;5.956905484E-1;2.087954521E0;-1.891713619E0
3.545646665E1;-3.716850877E-1;2.882728577E-1;4.733058929E0
3.547419212E1;-8.606082201E-2;8.007431030E-2;6.035251617E0
3.549190421E1;1.164840341E0;5.636043549E-1;3.749632835E0
3.550962736E1;3.039835930E0;1.024871826E0;7.851707935E-1
3.552734934E1;3.900740623E0;6.126613617E-1;-4.208993912E-2
3.554508646E1;4.353730679E0;-3.728561401E-1;1.316196680E0
3.556281010E1;4.346461296E0;-1.608629227E0;3.987414837E0
3.558053153E1;3.621593952E0;-2.277657509E0;5.959349632E0
3.559825889E1;5.340425491E0;-2.218247414E0;4.242467880E0
3.561598240E1;7.517802715E0;-1.538195610E0;1.777953506E0
3.563371018E1;5.587842464E0;-1.859912872E0;3.386241913E0
3.565143156E1;3.261108398E0;-4.897281647E0;6.838324547E0
3.566915409E1;4.931355953E0;-5.985638618E0;6.448805332E0
3.568687998E1;6.043869972E0;-5.227589607E0;5.411490440E0
3.570459293E1;7.055208683E0;-3.895889282E0;9.871765137E0
3.572232871E1;5.314529419E0;-3.954483986E0;1.059232712E1
3.574005283E1;-4.863979220E-1;-6.469696999E0;4.302518368E-1
3.575777842E1;-5.002723694E0;-8.097902298E0;-7.136598587E0
3.577550156E1;-7.629095078E0;-6.931336403E0;-6.128966331E0
3.579322568E1;-5.699454784E0;-2.404542923E0;-1.209174633E0
3.581094987E1;-2.408169746E0;-1.773959160E0;1.614224672E0
3.582867417E1;-3.854755759E-1;-2.728514671E0;-1.003464818E0
3.584639854E1;6.595033407E-2;-7.294559479E-1;-2.970542908E0
3.586412290E1;4.619435370E-1;7.902555466E-1;-3.026210308E0
3.588184409E1;1.053502560E-1;1.847404480E0;-2.467438698E0
3.589956016E1;4.090126514E0;3.813079357E0;-4.147249222E0
3.591728458E1;3.697993279E0;3.825442314E0;-5.672079563E0
3.593502311E1;7.979259491E-1;3.634636402E0;-4.480349541E0
3.595274448E1;-1.554322839E0;4.591034412E0;-3.984561205E0
3.597046860E1;-2.970969915E0;5.255758762E0;-5.126218796E0
3.598819279E1;-3.914983511E0;5.541100502E0;-5.572848797E0
3.600590928E1;-4.036711216E0;6.001646996E0;-5.251070023E0
3.602364420E1;-3.644937992E0;5.959792137E0;-4.172876358E0
3.604136552E1;-3.091612339E0;5.589888096E0;-3.452801466E0
3.605908549E1;-2.761163235E0;4.090501308E0;-1.703275561E0
3.607681406E1;-1.654058099E0;1.485090256E-1;4.128198147E0
3.609452970E1;2.347739935E0;-5.473614693E0;1.378049183E1
3.611226176E1;7.821913242E0;-1.060846996E1;1.384620094E1
3.612998698E1;8.539765358E0;-7.219261169E0;1.141469383E1
3.614771085E1;2.779875278E0;-2.391026497E0;5.815207958E0
3.616543546E1;-4.747050405E-1;3.272981644E-1;3.116196394E0
3.618315958E1;-1.259156823E0;-1.442827225E0;3.375267982E-1
3.620088712E1;-9.034166932E-1;-4.325848579E0;-2.744694233E0
3.621860844E1;-5.065207481E0;-5.052206993E0;-7.835602760E0
3.623633262E1;-6.727373123E0;-2.759751320E0;-2.811118603E0
3.625405698E1;-7.813776970E0;1.659479141E-1;2.098593235E0
3.627178086E1;-7.284059525E0;4.022043228E0;-5.519709110E0
3.628950584E1;-4.934160709E0;5.014571667E0;-1.001865578E1
3.630722996E1;-3.645854712E0;2.074325562E0;-1.012462521E1
3.632495371E1;-2.999601603E0;-9.673995972E-1;-7.035946369E0
3.634267832E1;3.153531253E-1;-2.553806305E0;-3.821288347E0
3.636040244E1;8.238093376E0;-3.815842628E0;-1.374788880E0
3.637812681E1;1.510261631E1;-4.376780510E0;-3.152140975E-2
3.639585111E1;9.799484253E0;-9.969606400E-1;3.319713354E0
3.641356419E1;3.641547203E0;2.290647984E0;3.294480324E0
3.643130253E1;-7.417159677E-1;1.993974209E0;2.306485415E0
3.644902378E1;-2.160470009E0;1.606284142E0;1.946065903E0
3.646674827E1;-1.877777457E0;1.514878273E0;-1.341662884E0
3.648447404E1;-1.763956308E0;1.473668098E0;-3.289507151E0
3.650219694E1;-2.518855572E0;1.006719589E0;4.490530968E0
3.651992130E1;-6.239154935E-1;8.325099945E-2;7.437153339E0
3.653764548E1;1.454608917E0;9.396362305E-2;4.879821301E0
3.655536948E1;2.355753899E0;8.992958069E-2;1.399532795E0
3.657309379E1;3.198077917E0;8.701553345E-1;-4.048175812E-1
3.659081797E1;3.393831253E0;5.537815094E-1;3.402440548E-1
3.660854234E1;3.186881542E0;-1.110682487E0;2.868399620E0
3.662626383E1;3.487541199E0;-1.799208641E0;6.225671768E0
3.664399082E1;4.253476143E0;-2.578419685E0;4.432470322E0
