"Time (s)";"Acceleration x (m/s^2)";"Acceleration y (m/s^2)";"Acceleration z (m/s^2)"
2.838125300E-2;-3.133401155E0;2.883650303E0;8.678768158E0
3.082984600E-2;-2.929712296E0;2.869293451E0;8.887242317E0
3.327828400E-2;-2.723929405E0;2.890828848E0;9.097810745E0
3.572682500E-2;-2.537289381E0;2.862114906E0;9.262915611E0
3.817614800E-2;-2.328814745E0;2.799901485E0;9.425926208E0
4.062380500E-2;-2.146960020E0;2.697010279E0;9.540781975E0
4.307239800E-2;-1.919641972E0;2.589333296E0;9.722636223E0
4.552166900E-2;-1.706381679E0;2.402693033E0;9.923933029E0
4.796932500E-2;-1.531705618E0;2.208575249E0;1.011296558E1
5.041791900E-2;-1.380957723E0;2.036292076E0;1.028046322E1
5.286635700E-2;-1.325922847E0;1.842473388E0;1.041715336E1
5.531495000E-2;-1.275673628E0;1.712961912E0;1.047697353E1
5.776422100E-2;-1.256231904E0;1.605284929E0;1.046500969E1
6.021193000E-2;-1.287637711E0;1.523928881E0;1.045304585E1
6.266047100E-2;-1.376172066E0;1.473679662E0;1.035942650E1
6.515797100E-2;-1.445564032E0;1.459322691E0;1.028764153E1
6.765547100E-2;-1.507777333E0;1.461715579E0;1.017278671E1
7.015271100E-2;-1.574776411E0;1.478465319E0;1.011057281E1
7.265000300E-2;-1.644168258E0;1.459322691E0;9.978967667E0
7.514745000E-2;-1.684846282E0;1.385145187E0;9.919147491E0
7.764489800E-2;-1.759023786E0;1.310967684E0;9.827920914E0
8.014224200E-2;-1.871785522E0;1.179063320E0;9.763314247E0
8.263958600E-2;-1.936391711E0;1.033101201E0;9.679565430E0
8.513698200E-2;-2.051247120E0;8.727820516E-1;9.595816612E0
8.763437800E-2;-2.187638044E0;8.177471161E-1;9.478569031E0
9.013172100E-2;-2.290529490E0;8.321040869E-1;9.318249702E0
9.262906500E-2;-2.304886341E0;8.488538265E-1;8.975776672E0
9.512646100E-2;-2.163709879E0;1.162313581E0;8.559126854E0
9.762385700E-2;-1.617847204E0;2.043470621E0;7.974978924E0
1.001212530E-1;-1.510170221E0;2.115255117E0;7.534400463E0
1.026186480E-1;-1.668096542E0;1.732104540E0;7.177869797E0
1.051160960E-1;-1.960319996E0;1.085743308E0;6.849753857E0
1.076135440E-1;-2.347957134E0;3.867399693E-1;6.643970966E0
1.101109920E-1;-2.711965322E0;-2.261217386E-1;6.605686188E0
1.126084400E-1;-2.994617462E0;-6.643074155E-1;6.612864494E0
1.151058880E-1;-3.090330362E0;-9.610173702E-1;6.474080563E0
1.176033360E-1;-3.138186932E0;-1.193420291E0;6.189035892E0
1.201007840E-1;-3.080759048E0;-1.380060434E0;5.750850201E0
1.225982320E-1;-3.032902718E0;-1.605284929E0;5.260022163E0
1.250956800E-1;-2.989831924E0;-1.868495345E0;4.762016296E0
1.275931280E-1;-2.987439156E0;-2.160718918E0;4.333701134E0
1.300905750E-1;-3.001796007E0;-2.447857618E0;3.960121393E0
1.325880230E-1;-3.047259569E0;-2.759223700E0;3.675375462E0
1.350854710E-1;-3.145365477E0;-3.015255690E0;3.548256874E0
1.375829190E-1;-3.279363394E0;-3.055933714E0;3.258725405E0
1.400803670E-1;-3.322434187E0;-3.110968590E0;3.215654612E0
1.425778150E-1;-3.267399311E0;-3.122932673E0;3.493221998E0
1.450752630E-1;-2.872284412E0;-2.258824587E0;3.972085476E0
1.475727110E-1;-2.443969250E0;-1.880459547E0;4.225724697E0
1.500701590E-1;-2.190030813E0;-2.062314034E0;4.431806564E0
1.525676070E-1;-1.974676847E0;-2.242074728E0;4.608875751E0
1.550650550E-1;-1.744666815E0;-2.431107759E0;4.812564373E0
1.575625030E-1;-1.474277854E0;-2.598605394E0;5.061418056E0
1.600599500E-1;-1.143769264E0;-2.744866610E0;5.523531914E0
1.625573980E-1;-7.752745152E-1;-2.792723179E0;6.521937370E0
1.650548460E-1;-3.897309899E-1;-2.842972517E0;7.433901787E0
1.675522940E-1;-5.443671346E-2;-2.921935558E0;8.183453560E0
1.700497420E-1;2.805584669E-1;-3.020041227E0;8.705088615E0
1.725471900E-1;6.278168559E-1;-3.091825962E0;8.994919777E0
1.750446380E-1;9.245268703E-1;-3.094218731E0;9.195916176E0
1.775420860E-1;1.156929731E0;-3.034398317E0;9.392427444E0
1.800395340E-1;1.341177106E0;-2.941078186E0;9.591031075E0
1.825369820E-1;1.549651742E0;-2.823829889E0;9.658030510E0
1.850344300E-1;1.693221092E0;-2.790330410E0;9.708279610E0
1.875318780E-1;1.707578063E0;-2.792723179E0;9.626923561E0
1.899830750E-1;1.731506228E0;-2.826222658E0;9.483354568E0
1.924315650E-1;1.669292927E0;-2.909971476E0;9.294321060E0
1.948808880E-1;1.547258973E0;-3.039183855E0;9.069096565E0
1.973293780E-1;1.487139225E0;-3.199502945E0;8.825029373E0
1.997770860E-1;1.374676585E0;-3.393620729E0;8.585447311E0
2.022256280E-1;1.271785259E0;-3.568296671E0;8.324629784E0
2.046749500E-1;1.142572761E0;-3.735794306E0;8.144868851E0
2.071234400E-1;1.020538807E0;-3.910769463E0;7.996514320E0
2.095710960E-1;9.317052960E-1;-4.071088791E0;7.855337620E0
2.120196900E-1;7.881359458E-1;-4.245764732E0;7.759624958E0
2.144690130E-1;7.091727853E-1;-4.423132420E0;7.740482330E0
2.169175030E-1;5.679962635E-1;-4.559523582E0;7.824231148E0
2.193651590E-1;3.930211067E-1;-4.648057938E0;7.951050758E0
2.218137000E-1;2.039881349E-1;-4.786841869E0;8.144868851E0
2.242630230E-1;2.931207791E-2;-4.899304390E0;8.432307243E0
2.267115650E-1;-1.839482337E-1;-5.021637440E0;8.762815475E0
2.291592210E-1;-2.629113793E-1;-5.234598637E0;9.133703232E0
2.316077630E-1;-3.514458239E-1;-5.454738140E0;9.653244972E0
2.340570860E-1;-2.700898647E-1;-6.127719879E0;1.166201973E1
2.365055750E-1;-8.075776696E-2;-7.556832790E0;1.512383556E1
2.389532840E-1;3.284149170E-1;-8.993423462E0;1.853301048E1
2.414018250E-1;7.929216027E-1;-9.337990761E0;1.908844376E1
2.438511480E-1;8.479565382E-1;-8.950352669E0;1.583719540E1
2.462996380E-1;8.647062778E-1;-8.483453751E0;1.224377441E1
2.487472940E-1;9.317052960E-1;-8.188837051E0;1.048893833E1
2.511958880E-1;9.460622668E-1;-7.813164234E0;1.039053345E1
2.536451590E-1;7.019943595E-1;-7.097112179E0;1.128604698E1
2.560937000E-1;2.638086975E-1;-6.120541096E0;1.225573826E1
2.585413570E-1;-9.272187948E-2;-5.007280350E0;1.274178028E1
2.609898980E-1;-2.940180898E-1;-3.939483404E0;1.282074356E1
2.634392210E-1;-2.964109182E-1;-3.020041227E0;1.285424328E1
2.658877630E-1;-5.204389244E-2;-2.170290232E0;1.291406345E1
2.683354190E-1;3.475574851E-1;-1.401595831E0;1.295952702E1
2.707839610E-1;8.838488460E-1;-7.001997232E-1;1.305045509E1
2.732332840E-1;1.479960799E0;-1.064806059E-1;1.307677555E1
2.756817730E-1;2.124228239E0;4.728815854E-1;1.315334606E1
2.781294300E-1;2.708376169E0;9.445667267E-1;1.334267807E1
2.805780230E-1;3.292523861E0;1.358824134E0;1.363460255E1
2.830273460E-1;3.584448338E0;1.657927036E0;1.417328644E1
2.854758360E-1;3.651447296E0;1.765604019E0;1.488664722E1
2.879234920E-1;3.634697676E0;1.797009826E0;1.528176212E1
2.903720860E-1;3.601198196E0;1.840080619E0;1.518604851E1
2.928213570E-1;3.546163082E0;1.945364833E0;1.480529118E1
2.952698980E-1;3.591626883E0;2.191825628E0;1.428814220E1
2.977175550E-1;3.704089403E0;2.558226585E0;1.390050507E1
3.001660960E-1;3.833600998E0;3.020340443E0;1.351017570E1
3.026154190E-1;3.981956005E0;3.458226919E0;1.329721451E1
3.050639090E-1;4.163810730E0;3.951447487E0;1.314616776E1
3.075116170E-1;4.314558506E0;4.377668858E0;1.305763340E1
3.099601590E-1;4.343571186E0;4.667499542E0;1.288774300E1
3.124094820E-1;4.374678135E0;4.815854549E0;1.269870949E1
3.148579710E-1;4.386641979E0;4.882853508E0;1.246152115E1
3.173056280E-1;4.384249210E0;4.844568729E0;1.223898888E1
3.197542210E-1;4.396213531E0;4.779962540E0;1.202333546E1
3.222034920E-1;4.403391838E0;4.672285080E0;1.176491070E1
3.246520340E-1;4.415356159E0;4.521238327E0;1.150618649E1
3.270996900E-1;4.412963390E0;4.348955154E0;1.135783195E1
3.295482320E-1;4.403391838E0;4.138386726E0;1.122144127E1
3.319975550E-1;4.427320004E0;3.953840256E0;1.115683460E1
3.344460440E-1;4.503890514E0;3.743271828E0;1.113769245E1
3.368937530E-1;4.551746845E0;3.592524052E0;1.113529968E1
3.393422940E-1;4.597210407E0;3.455834150E0;1.115683460E1
3.417916170E-1;4.637888432E0;3.362514019E0;1.116162014E1
3.442401070E-1;4.707280159E0;3.228515863E0;1.115683460E1
3.466877630E-1;4.747958183E0;3.075375319E0;1.118076324E1
3.491363570E-1;4.860421181E0;2.888436079E0;1.116640568E1
3.515856800E-1;5.006682396E0;2.819044113E0;1.108744240E1
3.540341690E-1;5.119144917E0;2.823829889E0;1.111376381E1
3.564818250E-1;5.176572800E0;2.699403048E0;1.121426201E1
3.589304190E-1;5.202893734E0;2.510370016E0;1.120469093E1
3.613796900E-1;5.183751106E0;2.436192513E0;1.114487076E1
3.638282320E-1;4.930111885E0;2.172683001E0;1.105394363E1
3.662758880E-1;4.673780918E0;1.808973908E0;1.090289593E1
3.687244300E-1;4.618745804E0;1.622034669E0;1.073779202E1
3.711737530E-1;4.592424870E0;1.344467282E0;1.063968563E1
3.736222420E-1;4.566103935E0;1.078564763E0;1.058465099E1
3.760699500E-1;4.539782524E0;8.081758618E-1;1.049372387E1
3.785184920E-1;4.546961308E0;4.465605319E-1;1.023978519E1
3.809678150E-1;4.503890514E0;2.264208496E-1;9.840184212E0
3.834163050E-1;4.484747887E0;1.316052489E-2;9.406784058E0
3.858639610E-1;4.506283283E0;-1.615155339E-1;8.982954979E0
3.883125550E-1;4.542175770E0;-3.696911037E-1;8.614161491E0
3.907618250E-1;4.649852753E0;-6.164509058E-1;8.415556908E0
3.932103670E-1;4.769493580E0;-8.030911088E-1;8.236095428E0
3.956580230E-1;4.896313190E0;-1.023529887E0;8.104190826E0
3.981065650E-1;5.009075165E0;-1.308275819E0;7.996514320E0
4.005558880E-1;5.100002289E0;-1.470987678E0;7.874480247E0
4.030044300E-1;5.226821899E0;-1.789532185E0;7.773981571E0
4.054520860E-1;5.281857014E0;-1.885245085E0;7.680661678E0
4.079006280E-1;5.367998600E0;-2.134098768E0;7.663911819E0
4.103499500E-1;5.377569675E0;-2.373680115E0;7.613662720E0
4.127984400E-1;5.320142269E0;-2.522035122E0;7.584649563E0
4.152461480E-1;5.248357296E0;-2.675175667E0;7.582256794E0
4.176946900E-1;5.114359379E0;-2.816651344E0;7.642376423E0
4.201440130E-1;4.932504654E0;-2.881257534E0;7.642376423E0
4.225925030E-1;4.783850670E0;-2.874078989E0;7.680661678E0
4.250401590E-1;4.558925152E0;-2.854936600E0;7.711768150E0
4.274887530E-1;4.451248169E0;-2.854936600E0;7.656733513E0
4.299380230E-1;4.362713814E0;-2.840579510E0;7.541578770E0
4.323865650E-1;4.295415878E0;-2.838186741E0;7.424330235E0
4.348342210E-1;4.316951275E0;-2.888436079E0;7.304689407E0
4.372827630E-1;4.302594185E0;-2.905185699E0;7.053442955E0
4.397320860E-1;4.266701698E0;-2.890828848E0;6.897610188E0
4.421806280E-1;4.214059830E0;-2.936292410E0;6.682256222E0
4.446282840E-1;4.204488277E0;-2.967399120E0;6.457031727E0
4.470768250E-1;4.168596268E0;-3.115754128E0;6.119643688E0
4.495261480E-1;4.137489319E0;-3.235395432E0;5.793920994E0
4.519746380E-1;4.106382847E0;-3.360121250E0;5.358427048E0
4.544222940E-1;4.044169426E0;-3.489333630E0;4.891527653E0
4.568708880E-1;3.895814419E0;-3.687937975E0;4.431806564E0
4.593202110E-1;3.763910055E0;-3.879662752E0;3.996013880E0
4.617687000E-1;3.570091486E0;-4.111766815E0;3.653541088E0
4.642163570E-1;3.311666489E0;-4.315156460E0;3.249154091E0
4.666649500E-1;3.139084101E0;-4.439882278E0;2.918645382E0
4.691142210E-1;2.990729094E0;-4.549952030E0;2.636292458E0
4.715627630E-1;2.871088028E0;-4.600201607E0;2.375175476E0
4.740104190E-1;2.794517756E0;-4.645665169E0;2.109572172E0
4.764589610E-1;2.787339211E0;-4.643272400E0;1.958525300E0
4.789082840E-1;2.842374086E0;-4.760520458E0;1.913061738E0
4.813567730E-1;2.890230656E0;-4.794020176E0;1.862812400E0
4.838044820E-1;2.777767897E0;-4.825126648E0;1.968096614E0
4.862530230E-1;2.626721144E0;-4.846662045E0;2.018645048E0
4.887023460E-1;2.363510609E0;-4.976173878E0;2.035394669E0
4.911508360E-1;2.150549412E0;-5.076672554E0;2.004287958E0
4.935984920E-1;1.956431627E0;-5.162814140E0;1.980060697E0
4.960470860E-1;1.767398596E0;-5.313561916E0;2.004287958E0
4.984964090E-1;1.635793328E0;-5.452345371E0;1.975275040E0
5.009448980E-1;1.527817249E0;-5.622535229E0;1.987538338E0
5.033925550E-1;1.540080428E0;-5.684748173E0;1.994716763E0
5.058411480E-1;1.626222134E0;-5.773283005E0;2.061715841E0
5.082904190E-1;1.741077542E0;-5.866602898E0;2.193320990E0
5.107389610E-1;1.901396751E0;-5.907280922E0;2.334497690E0
5.131866170E-1;2.040180445E0;-5.952744484E0;2.485245466E0
5.156351590E-1;2.172084808E0;-5.924030781E0;2.612364054E0
5.180844820E-1;2.236690998E0;-6.007779598E0;2.681756020E0
5.205329710E-1;2.289333105E0;-6.118148327E0;2.679363251E0
5.229806800E-1;2.258226395E0;-6.302395821E0;2.559721947E0
5.254292210E-1;2.267797709E0;-6.419643879E0;2.442174673E0
5.278785440E-1;2.210369825E0;-6.603891373E0;2.363211393E0
5.303270340E-1;2.246262312E0;-6.769295216E0;2.293819666E0
5.327746900E-1;2.353939295E0;-6.908079147E0;2.219642162E0
5.352232840E-1;2.521436930E0;-7.018148899E0;2.174178362E0
5.376726070E-1;2.811267614E0;-7.140182972E0;2.212463617E0
5.401210960E-1;3.110370398E0;-7.262516022E0;2.253141642E0
5.425687530E-1;3.455235958E0;-7.415656567E0;2.336890459E0
5.450173460E-1;3.739981890E0;-7.585546970E0;2.494816780E0
5.474666170E-1;4.111168385E0;-7.690831184E0;2.739183664E0
5.499151590E-1;4.544568539E0;-7.801199913E0;3.071786165E0
5.523628150E-1;4.910969257E0;-7.777271748E0;3.476472139E0
5.548113570E-1;5.327320576E0;-7.590332508E0;3.926621914E0
5.572606800E-1;5.770291805E0;-7.324729443E0;4.225724697E0
5.597092210E-1;6.203691959E0;-7.082755089E0;4.496412754E0
5.621568780E-1;6.601199627E0;-6.850651264E0;4.733302116E0
5.646054190E-1;6.972086906E0;-6.671189308E0;4.982454777E0
5.670547420E-1;7.302595615E0;-6.493821621E0;5.260022163E0
5.695032320E-1;7.642376423E0;-6.290431499E0;5.559424400E0
5.719508880E-1;8.006384850E0;-6.075077534E0;5.868098259E0
5.743994820E-1;8.427820206E0;-5.766104221E0;6.071787357E0
5.768488050E-1;8.887541771E0;-5.373382568E0;6.260820389E0
5.792972940E-1;9.419047356E0;-4.968995094E0;6.502794743E0
5.817449500E-1;1.004148006E1;-4.528416634E0;6.660720825E0
5.841935440E-1;1.067827034E1;-4.128516197E0;6.773183823E0
5.866428150E-1;1.131027412E1;-3.783650875E0;6.844968319E0
5.890913570E-1;1.184177971E1;-3.472583771E0;6.919145584E0
5.915390130E-1;1.228714466E1;-3.235395432E0;6.923931599E0
5.939875550E-1;1.265803146E1;-3.070290565E0;6.864110947E0
5.964368780E-1;1.295264816E1;-2.833401203E0;6.804290295E0
5.988854190E-1;1.320628738E1;-2.653640270E0;6.751648426E0
6.013330750E-1;1.347697544E1;-2.457428932E0;6.655935287E0
6.037816170E-1;1.377847099E1;-2.222932339E0;6.576972008E0
6.062309400E-1;1.408026600E1;-1.990529299E0;6.545865536E0
6.086794300E-1;1.443440342E1;-1.823031783E0;6.512365818E0
6.111271380E-1;1.480558968E1;-1.710569143E0;6.471388817E0
6.135756800E-1;1.515763378E1;-1.641177177E0;6.442675114E0
6.160250030E-1;1.550698662E1;-1.624427438E0;6.394818306E0
6.184734920E-1;1.577288914E1;-1.614856124E0;6.332605362E0
6.209211480E-1;1.594756508E1;-1.605284929E0;6.265605927E0
6.233697420E-1;1.606002808E1;-1.497308731E0;6.153143406E0
6.258190130E-1;1.615604019E1;-1.339382529E0;6.088537216E0
6.282675550E-1;1.619432449E1;-1.124028444E0;5.995217323E0
6.307152110E-1;1.621586037E1;-9.155537486E-1;5.937789440E0
6.331637530E-1;1.626132393E1;-7.384848595E-1;5.829813480E0
6.356130750E-1;1.630200195E1;-6.690930128E-1;5.724529266E0
6.380616170E-1;1.633789444E1;-7.121638656E-1;5.635994434E0
6.405092730E-1;1.633550072E1;-8.030911088E-1;5.533103466E0
6.429578150E-1;1.627807426E1;-9.562317729E-1;5.434997559E0
6.454071380E-1;1.623978806E1;-1.138385415E0;5.346164227E0
6.478556280E-1;1.618714523E1;-1.365703583E0;5.262415409E0
6.503033360E-1;1.612971878E1;-1.602892041E0;5.099703312E0
6.527518780E-1;1.608874130E1;-1.842174292E0;4.958526611E0
6.552012000E-1;1.597388554E1;-2.079063892E0;4.848456860E0
6.576496900E-1;1.579920959E1;-2.246860504E0;4.740480900E0
6.600973460E-1;1.561735535E1;-2.335394859E0;4.618446827E0
6.625459400E-1;1.538734531E1;-2.431107759E0;4.517948151E0
6.649952110E-1;1.515284824E1;-2.522035122E0;4.434199333E0
6.674437530E-1;1.494915962E1;-2.629712105E0;4.393521309E0
6.698914090E-1;1.485105419E1;-2.754437923E0;4.405485630E0
6.723399500E-1;1.477926922E1;-2.862114906E0;4.369593143E0
6.747892730E-1;1.470987701E1;-2.914757013E0;4.266701698E0
6.772378150E-1;1.486062527E1;-2.926721096E0;4.393521309E0
6.796854710E-1;1.572981739E1;-2.720938444E0;5.760421276E0
6.821340130E-1;1.578006744E1;-2.488535643E0;6.117250919E0
6.845833360E-1;1.534188175E1;-2.316252232E0;5.726922035E0
6.870318250E-1;1.498505211E1;-2.165504456E0;5.221737385E0
6.894795340E-1;1.466680622E1;-2.124527454E0;4.838885784E0
6.919280750E-1;1.469791317E1;-2.019243240E0;4.247559071E0
6.943773980E-1;1.548545074E1;-1.744068623E0;3.318545818E0
6.968258880E-1;1.565085506E1;-1.576271892E0;3.007179976E0
6.992735440E-1;1.548066521E1;-1.581057549E0;2.741576433E0
7.017221380E-1;1.523181152E1;-1.684248090E0;2.061715841E0
7.041714610E-1;1.490369606E1;-1.885245085E0;1.180558920E0
7.066199500E-1;1.439372540E1;-2.175075769E0;8.814560175E-1
7.090676070E-1;1.381197071E1;-2.438286304E0;3.930211067E-1
7.115162000E-1;1.329721451E1;-2.699103832E0;-9.541380405E-2
7.139654710E-1;1.294786263E1;-3.000898600E0;-6.795616150E-1
7.164140130E-1;1.273699474E1;-3.249752283E0;-1.412363529E0
7.188616690E-1;1.252881908E1;-3.393620729E0;-2.089831591E0
7.213102110E-1;1.227278709E1;-3.381656647E0;-2.494218588E0
7.237595340E-1;1.197817135E1;-3.216252804E0;-2.568695068E0
7.262080750E-1;1.162134171E1;-2.955435038E0;-2.551945448E0
7.286557320E-1;1.111167049E1;-2.720938444E0;-2.362613201E0
7.311042730E-1;1.058255768E1;-2.610569477E0;-2.032403708E0
7.335535960E-1;9.984052658E0;-2.593819857E0;-1.543968797E0
7.360020860E-1;9.232108116E0;-2.783151865E0;-1.033998489E0
7.384497420E-1;8.561818123E0;-2.993720293E0;-5.455635786E-1
7.408983360E-1;7.956135273E0;-3.317050457E0;-2.222333997E-1
7.433476590E-1;7.517949581E0;-3.604189157E0;-3.230310678E-1
7.457961480E-1;7.206882477E0;-3.949054718E0;-3.613162339E-1
7.482438050E-1;7.017550468E0;-4.176373005E0;-3.278166950E-1
7.506923980E-1;6.780661106E0;-4.537988186E0;-3.110669553E-1
7.531416690E-1;6.545865536E0;-4.813162804E0;-3.206382394E-1
7.555902110E-1;6.198905945E0;-5.014459133E0;-1.791625917E-1
7.580378670E-1;5.923432350E0;-5.062315464E0;4.336991161E-2
7.604864610E-1;5.739185333E0;-5.105386257E0;4.863412082E-1
7.629357320E-1;5.617151260E0;-5.158028126E0;9.963115454E-1
7.653842730E-1;5.583651543E0;-5.119743347E0;1.379163146E0
7.678319300E-1;5.521438122E0;-5.114957333E0;1.692921996E0
7.702804710E-1;5.454140186E0;-5.177170753E0;1.819741607E0
7.727297940E-1;5.499902725E0;-5.241776943E0;2.016252279E0
7.751782840E-1;5.600401402E0;-5.349453926E0;2.281855583E0
7.776259920E-1;5.514259815E0;-5.545964718E0;2.669791937E0
7.800745340E-1;5.485546112E0;-5.849853039E0;3.189333439E0
7.825238570E-1;5.533402443E0;-6.089434624E0;3.576970816E0
7.849723460E-1;5.660222054E0;-6.407680035E0;3.864408493E0
7.874200030E-1;5.904289722E0;-6.814758778E0;4.046263218E0
7.898685960E-1;6.210870266E0;-7.125825882E0;4.113262177E0
7.923178670E-1;6.594020844E0;-7.296015263E0;4.254737854E0
7.947664090E-1;6.955337048E0;-7.374978542E0;4.345664978E0
7.972140650E-1;7.343273640E0;-7.511369228E0;4.637589455E0
7.996626590E-1;7.812565804E0;-7.554440022E0;4.896313190E0
8.021119300E-1;8.068597794E0;-7.571189880E0;4.908277512E0
8.045604710E-1;8.135597229E0;-7.564011574E0;4.972883701E0
8.070081280E-1;7.936992645E0;-7.607082367E0;5.097310543E0
8.094566690E-1;7.561020374E0;-7.827520847E0;5.279164791E0
8.119059920E-1;7.197311401E0;-8.248658180E0;5.169095039E0
8.143545340E-1;7.106084824E0;-8.531310081E0;5.003990173E0
8.168021900E-1;7.156633377E0;-8.849555016E0;4.773980141E0
8.192507320E-1;7.340880871E0;-9.060422897E0;4.367200375E0
8.217000550E-1;7.604091167E0;-9.151350021E0;3.768695593E0
8.241485440E-1;8.025527000E0;-9.125029564E0;3.146262646E0
8.265962530E-1;8.020741463E0;-9.122636795E0;2.408675194E0
8.290447940E-1;7.288238525E0;-9.148957253E0;2.001895189E0
8.314941170E-1;6.134299755E0;-9.544072151E0;2.128714800E0
8.339426070E-1;4.946861744E0;-1.001815033E1;3.019144058E0
8.363902630E-1;3.751945972E0;-1.078893852E1;3.428615808E0
8.388388570E-1;2.890230656E0;-1.104257774E1;4.427021027E0
8.412881800E-1;2.440080881E0;-1.152144146E1;4.496412754E0
8.437366690E-1;2.100300074E0;-1.088943672E1;5.511568069E0
8.461843250E-1;2.191227436E0;-9.965209007E0;5.669494152E0
8.486328670E-1;2.813660383E0;-8.698807716E0;5.966503143E0
8.510821900E-1;3.237488985E0;-8.239086151E0;5.530710220E0
8.535307320E-1;3.498306751E0;-7.944769382E0;5.116453171E0
8.559783880E-1;3.804887056E0;-7.863413334E0;4.982454777E0
8.584269300E-1;4.283451557E0;-8.363812447E0;4.264308929E0
8.608762530E-1;4.743172646E0;-8.648558617E0;3.929014683E0
8.633247420E-1;4.975575447E0;-9.266205788E0;3.895515203E0
8.657724500E-1;5.064109802E0;-9.900602341E0;4.098905087E0
8.682209920E-1;5.147858620E0;-1.038185883E1;3.878765583E0
8.706703150E-1;5.253142834E0;-1.061665535E1;3.627219915E0
8.731188050E-1;5.214858055E0;-1.045603657E1;3.469293833E0
8.755664610E-1;5.033003330E0;-9.950852394E0;3.648755312E0
8.780150550E-1;4.568496704E0;-9.900602341E0;3.146262646E0
8.804643780E-1;3.605983734E0;-9.998708725E0;2.119143486E0
8.829128670E-1;3.522234917E0;-9.819247246E0;1.489532113E0
8.853605230E-1;3.622733593E0;-9.740283966E0;1.125523925E0
8.878091170E-1;3.716053486E0;-9.680462837E0;1.080060363E0
8.902583880E-1;3.790530205E0;-9.785747528E0;1.161416292E0
8.927069300E-1;3.749552965E0;-9.919745445E0;1.405484200E0
8.951545860E-1;3.634697676E0;-1.019761181E1;1.491924882E0
8.976031800E-1;3.206083298E0;-1.053978539E1;1.142273664E0
9.000524500E-1;2.684448004E0;-1.055892849E1;5.102694035E-1
9.025009920E-1;2.789732218E0;-9.989137650E0;-2.533400953E-1
9.049486480E-1;2.631506681E0;-8.974281311E0;-9.263214469E-1
9.073971900E-1;2.686840773E0;-7.125825882E0;-1.160818100E0
9.098465130E-1;2.571686029E0;-6.733402729E0;-3.732803464E-1
9.122950550E-1;2.574079037E0;-6.579963207E0;8.647062778E-1
9.147427110E-1;2.677269459E0;-6.367002010E0;2.009073734E0
9.171912530E-1;2.863909483E0;-6.218647003E0;3.105285645E0
9.196405750E-1;2.990729094E0;-6.099005699E0;3.878765583E0
9.220890650E-1;3.119941711E0;-5.962316036E0;4.453341961E0
9.245367210E-1;3.194119215E0;-5.830710411E0;4.829314232E0
9.269853150E-1;3.302095175E0;-5.656034470E0;5.185844898E0
9.294346380E-1;3.304488182E0;-5.529214859E0;5.228915691E0
9.318831280E-1;3.371487141E0;-5.562714577E0;4.996811867E0
9.343307840E-1;3.443271875E0;-5.615356445E0;4.716552734E0
9.367793780E-1;3.388236761E0;-5.600999832E0;4.307379723E0
9.392287000E-1;3.323630571E0;-5.620141983E0;3.730410576E0
9.416771900E-1;3.278167009E0;-5.689534187E0;3.088535786E0
9.441248460E-1;3.189333439E0;-5.682355404E0;2.511566401E0
9.465734400E-1;3.048156977E0;-5.677569866E0;1.958525300E0
9.490227110E-1;2.885445118E0;-5.694319725E0;1.432104349E0
9.514712530E-1;2.768196583E0;-5.636891842E0;1.015454054E0
9.539189090E-1;2.554936409E0;-5.608178139E0;6.394818425E-1
9.563674500E-1;2.377867460E0;-5.627320766E0;3.714857101E-1
9.588167730E-1;2.172084808E0;-5.598606586E0;5.054837838E-2
9.612653150E-1;1.949253201E0;-5.567500114E0;-2.198405862E-1
9.637129710E-1;1.743470430E0;-5.373382568E0;-4.516452923E-2
9.661615130E-1;1.659721613E0;-5.251348495E0;1.725823283E-1
9.686108360E-1;1.647757530E0;-5.160421371E0;3.284149170E-1
9.710593250E-1;1.657328725E0;-5.016851902E0;3.619144261E-1
9.735070340E-1;1.662114382E0;-4.882554531E0;3.523431420E-1
9.759555750E-1;1.709970832E0;-4.825126648E0;5.772684515E-2
9.784048980E-1;1.757827282E0;-4.770092010E0;-1.911267042E-1
9.808533880E-1;1.650150299E0;-4.743771076E0;-5.982056856E-1
9.833010440E-1;1.580758452E0;-4.578666210E0;-8.425726891E-1
9.857496380E-1;1.489532113E0;-4.492524624E0;-7.226324677E-1
9.881989610E-1;1.432104349E0;-4.411168575E0;-6.628118753E-1
9.906474500E-1;1.417747378E0;-4.303192616E0;-3.684946895E-1
9.930951070E-1;1.499103427E0;-4.229014874E0;1.271187067E-1
9.955437000E-1;1.748256087E0;-4.238586426E0;7.567301393E-1
9.979929710E-1;1.949253201E0;-4.264907360E0;1.269093275E0
1.000441513E0;2.267797709E0;-4.351048946E0;2.100000858E0
1.002889169E0;2.609971285E0;-4.497310162E0;3.047857761E0
1.005337711E0;2.993122101E0;-4.686343193E0;3.557828188E0
1.007787034E0;3.385843992E0;-4.971388340E0;3.783052683E0
1.010235575E0;3.644268990E0;-5.265705109E0;3.919443607E0
1.012683232E0;3.763910055E0;-5.442774296E0;3.917050600E0
1.015131773E0;3.586841106E0;-5.239384174E0;4.582554340E0
1.017581096E0;3.373879910E0;-5.024030209E0;4.807778835E0
1.020029586E0;2.849552631E0;-4.612165451E0;5.080560684E0
1.022477294E0;2.497508526E0;-4.305585384E0;5.252843857E0
1.024925836E0;2.246262312E0;-4.537988186E0;5.078167915E0
1.027375159E0;2.049751759E0;-5.215456009E0;4.505984306E0
1.029823648E0;1.829612017E0;-6.170790672E0;4.158725739E0
1.032271305E0;1.544866085E0;-7.217051983E0;3.694518089E0
1.034719898E0;1.276570916E0;-8.380561829E0;3.208476067E0
1.037169221E0;1.104287624E0;-9.388239861E0;2.454138756E0
1.039617711E0;8.168498278E-1;-1.004447079E1;1.551745534E0
1.042065367E0;5.775675774E-1;-1.061426258E1;4.049852192E-1
1.044513961E0;3.547359705E-1;-1.098275661E1;-2.895315289E-1
1.046963232E0;2.542374134E-1;-1.164826107E1;-8.545367718E-1
1.049411773E0;2.303091735E-1;-1.261795235E1;-6.699903607E-1
1.051859430E0;1.824527234E-1;-1.362592888E1;9.601201117E-2
1.054308023E0;3.649054468E-2;-1.446850109E1;8.982058167E-1
1.056757294E0;-1.310070455E-1;-1.529940891E1;1.302592874E0
1.059205836E0;-1.815554202E-1;-1.592184162E1;2.071287155E0
1.061653492E0;-2.772683203E-1;-1.646291924E1;2.164607286E0
1.064102034E0;-3.323032558E-1;-1.667348671E1;2.487638235E0
1.066551357E0;-2.916252613E-1;-1.660409546E1;2.490031004E0
1.068999898E0;-2.389831543E-1;-1.629781342E1;2.327319145E0
1.071447555E0;-2.892324328E-1;-1.599123383E1;1.580459356E0
1.073896096E0;-1.767697781E-1;-1.565384579E1;3.547359705E-1
1.076345419E0;-1.863410622E-1;-1.519173145E1;-3.661018610E-1
1.078793909E0;-1.046859920E-1;-1.488754463E1;-1.055533886E0
1.081241617E0;-1.214357466E-1;-1.483490181E1;-1.503290772E0
1.083690159E0;-3.290131316E-2;-1.494257927E1;-1.613360643E0
1.086139482E0;1.872383654E-1;-1.571845150E1;-1.213460207E0
1.088587971E0;3.595215976E-1;-1.906302071E1;-2.068295956E0
1.091035628E0;1.559223056E0;-2.383430862E1;-2.913261652E0
1.093484221E0;3.021835804E0;-2.912783051E1;-2.812762976E0
1.095933544E0;4.515854359E0;-3.377708435E1;-2.156830549E0
1.098382034E0;5.605186939E0;-3.710490417E1;-1.309173107E0
1.100829690E0;6.500401974E0;-3.949652863E1;-2.841476910E-2
1.103278284E0;7.055835724E0;-4.082035828E1;2.071287155E0
1.105727555E0;7.510771275E0;-4.053321838E1;4.479662895E0
1.108176096E0;7.965706348E0;-3.760290909E1;7.577471256E0
1.110623753E0;7.948956966E0;-3.200789261E1;1.029242706E1
1.113072346E0;6.972086906E0;-2.523261452E1;1.193958664E1
1.115521617E0;5.430212021E0;-1.910609055E1;1.244716454E1
1.117970159E0;3.751945972E0;-1.432971764E1;1.200419331E1
1.120417815E0;2.131406784E0;-1.079611683E1;1.092443180E1
1.122866357E0;7.019943595E-1;-8.176873207E0;9.476176262E0
1.125315680E0;-4.328017831E-1;-6.211468697E0;7.666304588E0
1.127764221E0;-1.285244823E0;-4.743771076E0;5.746064663E0
1.130211878E0;-1.859821439E0;-3.714258909E0;3.888336897E0
1.132660419E0;-2.297708035E0;-3.151646614E0;2.167000055E0
1.135109742E0;-2.649751902E0;-2.938685417E0;7.160521746E-1
1.137558232E0;-3.020938635E0;-3.046362400E0;-3.397808075E-1
1.140005940E0;-3.458825111E0;-3.458226919E0;-1.012463093E0
1.142454482E0;-3.940081596E0;-4.262514591E0;-1.407577872E0
1.144903805E0;-4.395017147E0;-5.483452320E0;-1.527219057E0
1.147352294E0;-4.708775997E0;-6.769295216E0;-1.405185103E0
1.149799950E0;-4.646562576E0;-7.825128078E0;-1.124925733E0
1.152248544E0;-4.229912281E0;-8.531310081E0;-7.489534616E-1
1.154697867E0;-3.526123285E0;-8.986245155E0;-3.110669553E-1
1.157146357E0;-2.728715181E0;-9.326025963E0;1.031904742E-1
1.159594013E0;-1.936391711E0;-9.663713455E0;4.671986103E-1
1.162042607E0;-1.201196909E0;-9.981958389E0;8.189435601E-1
1.164491878E0;-5.931209326E-1;-1.027178955E1;1.115952611E0
1.166940419E0;-8.793623000E-2;-1.055653572E1;1.432104349E0
1.169388075E0;3.355933726E-1;-1.076740265E1;1.676172256E0
1.171836669E0;7.642077208E-1;-1.088704395E1;1.805384636E0
1.174285940E0;1.097109199E0;-1.097318554E1;1.846062660E0
1.176734482E0;1.456032634E0;-1.100189972E1;1.831705689E0
1.179182138E0;1.767398596E0;-1.095404339E1;1.783849239E0
1.181630680E0;2.076072693E0;-1.087986565E1;1.759921074E0
1.184080003E0;2.349153519E0;-1.076500988E1;1.786242127E0
1.186528544E0;2.564507723E0;-1.059272671E1;1.829312921E0
1.188976200E0;2.717947483E0;-1.036989498E1;1.877169371E0
1.191424742E0;2.804089069E0;-1.016411209E1;1.946561217E0
1.193874065E0;2.830410004E0;-9.984351158E0;2.006680965E0
1.196322555E0;2.796910524E0;-9.797711372E0;2.056930065E0
1.198770263E0;2.672483683E0;-9.623035431E0;2.138286114E0
1.201218805E0;2.519043922E0;-9.527322769E0;2.210070848E0
1.203668128E0;2.306082726E0;-9.441181183E0;2.231606245E0
1.206116617E0;2.047358990E0;-9.397810936E0;2.198106766E0
1.208564273E0;1.808076620E0;-9.381061554E0;2.176571369E0
1.211012867E0;1.549651742E0;-9.431310654E0;2.135893345E0
1.213462190E0;1.235892892E0;-9.501001358E0;2.107179403E0
1.215910680E0;9.774680734E-1;-9.524930000E0;2.133500576E0
1.218358336E0;6.708876491E-1;-9.563215256E0;2.109572172E0
1.220806930E0;4.196412563E-1;-9.603892326E0;2.116750717E0
1.223256253E0;1.992024779E-1;-9.637392044E0;2.097608089E0
1.225704742E0;-2.333002165E-2;-9.694820404E0;2.135893345E0
1.228152398E0;-2.174477577E-1;-9.740283966E0;2.214856386E0
1.230600940E0;-3.993022740E-1;-9.761818886E0;2.255534410E0
1.233050263E0;-5.356931686E-1;-9.773782730E0;2.284248352E0
1.235498805E0;-6.649056077E-1;-9.821640015E0;2.322533369E0
1.237946461E0;-7.465606928E-1;-9.862318039E0;2.358425856E0
1.240395003E0;-7.441678643E-1;-9.912567139E0;2.379961252E0
1.242844325E0;-7.489534616E-1;-9.869496346E0;2.449352980E0
1.245292867E0;-7.441678643E-1;-9.891031265E0;2.430210590E0
1.247740523E0;-7.250252366E-1;-9.948459625E0;2.442174673E0
1.250189065E0;-6.505486369E-1;-9.993923187E0;2.399103880E0
1.252638388E0;-5.667998791E-1;-9.984351158E0;2.384746790E0
1.255086878E0;-5.237290859E-1;-9.960423470E0;2.384746790E0
1.257534586E0;-4.639084935E-1;-9.924530983E0;2.363211393E0
1.259983128E0;-4.160520434E-1;-9.802496910E0;2.413460732E0
1.262432450E0;-4.016951025E-1;-9.563215256E0;2.475674152E0
1.264880940E0;-3.825525343E-1;-9.428917885E0;2.490031004E0
1.267328596E0;-3.921238184E-1;-9.426525116E0;2.389532566E0
1.269777190E0;-4.040879309E-1;-9.426525116E0;2.262712955E0
1.272226513E0;-3.777668774E-1;-9.292527199E0;2.140678883E0
1.274675003E0;-3.969094455E-1;-9.323633194E0;2.054537296E0
1.277122659E0;-3.921238184E-1;-9.335597992E0;1.934597135E0
1.279571253E0;-4.280161560E-1;-9.263813019E0;1.783849239E0
1.282020575E0;-4.543372095E-1;-9.385847092E0;1.719243050E0
1.284469065E0;-4.232304990E-1;-9.632606506E0;1.616351724E0
1.286916721E0;-4.710869491E-1;-9.816853523E0;1.523031592E0
1.289365315E0;-4.543372095E-1;-9.905388832E0;1.456032634E0
1.291814586E0;-4.950151742E-1;-9.754640579E0;1.503889084E0
1.294263128E0;-5.069792867E-1;-9.768997192E0;1.659422517E0
1.296710784E0;-4.591228366E-1;-9.855138779E0;1.826920033E0
1.299159378E0;-4.184448719E-1;-9.780961990E0;1.939382792E0
1.301608648E0;-3.753740489E-1;-9.627820969E0;2.054537296E0
1.304057190E0;-3.275175989E-1;-9.189635277E0;2.119143486E0
1.306504846E0;-4.232304990E-1;-8.366205215E0;2.064108610E0
1.308953388E0;-6.194419861E-1;-7.645367622E0;2.123929262E0
1.311402711E0;-7.585247755E-1;-7.319943428E0;2.387139797E0
1.313851253E0;-8.279166222E-1;-7.058826923E0;2.224427700E0
1.316298909E0;-9.379864931E-1;-6.640082836E0;1.733600020E0
1.318747450E0;-1.036092162E0;-6.192326069E0;1.326521039E0
1.321196773E0;-1.167697430E0;-5.763711452E0;1.041775107E0
1.323645315E0;-1.299601793E0;-5.342275620E0;8.285148144E-1
1.326092971E0;-1.486241937E0;-4.736592293E0;7.016952634E-1
1.328541513E0;-1.546062589E0;-4.367798805E0;8.623134494E-1
1.330990836E0;-1.361815214E0;-4.995316505E0;9.795617461E-1
1.333439325E0;-1.253839016E0;-8.531310081E0;1.051346421E0
1.335887034E0;-1.706381679E0;-1.173948669E1;3.598506212E0
1.338335575E0;-1.790130496E0;-1.021675491E1;7.591827869E0
1.340784898E0;-1.127019525E0;-1.262752342E1;4.575376034E0
1.343233388E0;-4.375874400E-1;-1.514387512E1;2.506780863E0
1.345681044E0;3.355933726E-1;-1.624995804E1;7.375875711E-1
1.348129638E0;9.101698995E-1;-1.751875114E1;-4.378865361E-1
1.350578961E0;1.209571838E0;-1.778914070E1;-7.417750359E-1
1.353027450E0;1.631007791E0;-1.659930992E1;-1.165603757E0
1.355475107E0;2.092822552E0;-1.449512100E1;-2.075474501E0
1.357923700E0;2.076072693E0;-1.263948727E1;-2.755335331E0
1.360373023E0;1.674078584E0;-1.093250751E1;-2.915654421E0
1.362821513E0;1.085145116E0;-9.723533630E0;-2.254936218E0
1.365269169E0;5.895316601E-1;-8.926424980E0;-1.117747307E0
1.367717763E0;2.805584669E-1;-8.380561829E0;-1.289133132E-1
1.370167034E0;2.015953064E-1;-8.200801849E0;7.663014531E-1
1.372615575E0;4.316053987E-1;-8.277371407E0;1.556531072E0
1.375063232E0;7.761718631E-1;-8.445168495E0;2.312962294E0
1.377511825E0;1.106680512E0;-8.753842354E0;2.830111027E0
1.379961096E0;1.405783296E0;-9.103493690E0;3.100499868E0
1.382409638E0;1.666900039E0;-9.402596474E0;3.028715372E0
1.384857294E0;1.865504384E0;-9.651749611E0;2.653042078E0
1.387305836E0;2.009073734E0;-9.826425552E0;2.145464659E0
1.389755159E0;2.068894386E0;-9.946066856E0;1.613958836E0
1.392203700E0;2.145763636E0;-1.001575756E1;1.161416292E0
1.394651357E0;2.284547329E0;-1.003250694E1;7.782655358E-1
1.397099898E0;2.437688112E0;-1.000618649E1;5.892325640E-1
1.399549221E0;2.667698145E0;-9.991530418E0;5.006981492E-1
1.401997711E0;2.832803011E0;-9.993923187E0;5.437689424E-1
1.404445419E0;2.816053152E0;-1.003729248E1;6.801598072E-1
1.406893961E0;2.789732218E0;-1.016650486E1;7.998009920E-1
1.409343284E0;2.753839731E0;-1.023828983E1;8.790631890E-1
1.411791773E0;2.763411045E0;-1.030050373E1;8.548358679E-1
1.414239482E0;2.835195780E0;-1.032921696E1;8.045865893E-1
1.416688023E0;2.902194738E0;-1.030528927E1;7.256234884E-1
1.419137346E0;2.952444077E0;-1.034596729E1;6.035895348E-1
1.421585836E0;2.995514870E0;-1.036032391E1;4.576273263E-1
1.424033544E0;3.036192894E0;-1.039860916E1;3.236292601E-1
1.426482086E0;3.093620539E0;-1.044646549E1;1.701895148E-1
1.428931409E0;3.103191853E0;-1.048235798E1;1.226321608E-2
1.431379898E0;3.177369356E0;-1.053978539E1;-4.516452923E-2
1.433827555E0;3.213261604E0;-1.058076286E1;-7.866404206E-2
1.436276148E0;3.282952785E0;-1.065972614E1;-1.432702541E-1
1.438725471E0;3.314059258E0;-1.073868847E1;-1.600200087E-1
1.441173961E0;3.354737282E0;-1.079850960E1;-1.097707376E-1
1.443621617E0;3.376272678E0;-1.087508011E1;-5.234299600E-2
1.446070211E0;3.357130051E0;-1.093490028E1;2.183450572E-2
1.448519482E0;3.318845034E0;-1.103300571E1;9.122636169E-2
1.450968023E0;3.290131092E0;-1.110957623E1;1.247258782E-1
1.453415680E0;3.210868835E0;-1.116969585E1;1.534397453E-1
1.455864273E0;3.155833960E0;-1.123430252E1;1.295115203E-1
1.458313544E0;3.112763166E0;-1.124865913E1;1.007976532E-1
1.460762086E0;3.045764208E0;-1.128933716E1;1.465603895E-2
1.463209742E0;3.002693415E0;-1.130130100E1;-8.344969153E-2
1.465658284E0;2.966800928E0;-1.133480072E1;-1.767697781E-1
1.468107607E0;2.935694218E0;-1.138026428E1;-2.871387303E-1
1.470556148E0;2.938086987E0;-1.138744259E1;-4.450650215E-1
1.473003805E0;2.918944597E0;-1.144008541E1;-5.551348329E-1
1.475452346E0;2.947658300E0;-1.143290615E1;-6.628118753E-1
1.477901669E0;2.978765011E0;-1.145922756E1;-7.537391186E-1
1.480350211E0;3.033800125E0;-1.145683479E1;-8.087740541E-1
1.482797867E0;3.081656456E0;-1.148076344E1;-8.593224287E-1
1.485246409E0;3.158226728E0;-1.146401310E1;-8.641080856E-1
1.487695732E0;3.225524902E0;-1.145922756E1;-8.425726891E-1
1.490144221E0;3.287738323E0;-1.146401310E1;-8.473583460E-1
1.492591930E0;3.323630571E0;-1.148076344E1;-8.473583460E-1
1.495040471E0;3.364308596E0;-1.146879864E1;-8.306085467E-1
1.497489794E0;3.369094372E0;-1.147358418E1;-8.952147961E-1
1.499938284E0;3.419343472E0;-1.147358418E1;-9.119645357E-1
1.502385992E0;3.364308596E0;-1.148794174E1;-9.789635539E-1
1.504834534E0;3.366701365E0;-1.148076344E1;-1.084247708E0
1.507283857E0;3.323630571E0;-1.149033451E1;-1.196710467E0
1.509732346E0;3.297309637E0;-1.146640587E1;-1.354636669E0
1.512180055E0;3.196511984E0;-1.148315620E1;-1.539183140E0
1.514628596E0;3.146262646E0;-1.148076344E1;-1.735394597E0
1.517077919E0;3.093620539E0;-1.146162033E1;-1.912463546E0
1.519526409E0;3.024228811E0;-1.146162033E1;-2.092224360E0
1.521974065E0;2.990729094E0;-1.146401310E1;-2.286042929E0
1.524422659E0;2.954836845E0;-1.145444202E1;-2.463111877E0
1.526871982E0;2.952444077E0;-1.150708389E1;-2.614158630E0
1.529320471E0;2.923730135E0;-1.152861977E1;-2.745764017E0
1.531768128E0;2.885445118E0;-1.153819084E1;-2.827120066E0
1.534216721E0;2.890230656E0;-1.151186943E1;-2.908475876E0
1.536666044E0;2.895016193E0;-1.146879864E1;-2.927618504E0
1.539114534E0;2.887837887E0;-1.139701462E1;-2.941975355E0
1.541562190E0;2.909373283E0;-1.129651546E1;-2.918047190E0
1.544010784E0;2.904587507E0;-1.120319557E1;-2.860619545E0
1.546460055E0;2.878266573E0;-1.104975605E1;-2.807977438E0
1.548908596E0;2.904587507E0;-1.088225842E1;-2.707478762E0
1.551356253E0;2.866302490E0;-1.069322491E1;-2.595016241E0
1.553804846E0;2.839981318E0;-1.051107121E1;-2.520838737E0
1.556254117E0;2.799303293E0;-1.031007481E1;-2.489432812E0
1.558702659E0;2.772982359E0;-1.011386299E1;-2.458326101E0
1.561150315E0;2.715554714E0;-9.929316521E0;-2.448754787E0
1.563598857E0;2.626721144E0;-9.745069504E0;-2.453540564E0
1.566048180E0;2.535793781E0;-9.587142944E0;-2.484647274E0
1.568496721E0;2.428116798E0;-9.443573952E0;-2.520838737E0
1.570944378E0;2.289333105E0;-9.309276581E0;-2.640479803E0
1.573392919E0;2.133799553E0;-9.196813583E0;-2.779263496E0
1.575842242E0;1.930110574E0;-9.120243073E0;-2.944368362E0
1.578290784E0;1.698006749E0;-9.122636795E0;-3.104986429E0
1.580738440E0;1.470389485E0;-9.129815102E0;-3.241377354E0
1.583186982E0;1.228714466E0;-9.192028046E0;-3.289233923E0
1.585636305E0;9.245268703E-1;-9.299705505E0;-3.303590775E0
1.588084846E0;6.349952817E-1;-9.460323334E0;-3.260519981E0
1.590532503E0;3.379862010E-1;-9.620642662E0;-3.121736288E0
1.592981044E0;7.477571070E-2;-9.795318604E0;-2.882154942E0
1.595430367E0;-2.030908167E-1;-9.998708725E0;-2.566302299E0
1.597878857E0;-4.160520434E-1;-1.020718288E1;-2.147259235E0
1.600326565E0;-6.409773827E-1;-1.041775131E1;-1.680359721E0
1.602775107E0;-8.135597110E-1;-1.068365383E1;-1.189531922E0
1.605224430E0;-9.954141974E-1;-1.093729305E1;-7.202396393E-1
1.607672919E0;-1.146162033E0;-1.126540947E1;-2.751746178E-1
1.610120575E0;-1.244267821E0;-1.159322548E1;2.108674943E-1
1.612569169E0;-1.268195987E0;-1.184477139E1;6.011967063E-1
1.615018492E0;-1.270887971E0;-1.219651604E1;8.670991063E-1
1.617466982E0;-1.239482164E0;-1.244566917E1;1.132702470E0
1.619914638E0;-1.165304661E0;-1.273041439E1;1.328913927E0
1.622363232E0;-1.081555843E0;-1.297717476E1;1.484746456E0
1.624812555E0;-9.547362328E-1;-1.318535042E1;1.640279889E0
1.627261044E0;-8.997012973E-1;-1.342014599E1;1.865205288E0
1.629708700E0;-8.518448472E-1;-1.362832165E1;2.006680965E0
1.632157294E0;-7.561319470E-1;-1.382692528E1;2.090429783E0
1.634606617E0;-6.481558084E-1;-1.397318649E1;2.085644007E0
1.637055107E0;-5.189434290E-1;-1.407129288E1;2.035394669E0
1.639502763E0;-3.849453330E-1;-1.416939831E1;1.879562140E0
1.641951357E0;-2.748754919E-1;-1.420529079E1;1.649851203E0
1.644400628E0;-1.671984792E-1;-1.422921848E1;1.357627749E0
1.646849169E0;-4.007977992E-2;-1.420768356E1;1.125523925E0
1.649296825E0;2.691925503E-2;-1.413350582E1;9.029914737E-1
1.651745419E0;8.434699476E-2;-1.407129288E1;6.275177598E-1
1.654194690E0;2.446661144E-1;-1.399711514E1;2.611167729E-1
1.656643232E0;3.212364316E-1;-1.387717533E1;-6.879365072E-3
1.659090888E0;4.555336237E-1;-1.373121262E1;-2.341975123E-1
1.661539482E0;6.326025128E-1;-1.358525085E1;-4.785645306E-1
1.663988753E0;8.144569993E-1;-1.342732430E1;-7.058826685E-1
1.666437294E0;9.822536707E-1;-1.331695557E1;-8.425726891E-1
1.668884950E0;1.209571838E0;-1.318056488E1;-1.022034407E0
1.671333492E0;1.484746456E0;-1.306570911E1;-1.127318621E0
1.673782815E0;1.745863199E0;-1.299631691E1;-1.306780219E0
1.676231357E0;1.982752681E0;-1.297238922E1;-1.388435364E0
1.678679013E0;2.066501379E0;-1.299631691E1;-1.460219979E0
1.681127607E0;2.114656925E0;-1.304895878E1;-1.479362607E0
1.683576878E0;2.114656925E0;-1.314227962E1;-1.455434322E0
1.686025419E0;2.085644007E0;-1.323559952E1;-1.412363529E0
1.688473075E0;2.052144527E0;-1.332652664E1;-1.424327731E0
1.690921617E0;1.966002941E0;-1.343210983E1;-1.337886930E0
1.693370940E0;1.958824396E0;-1.347757339E1;-1.335494161E0
1.695819482E0;1.877468467E0;-1.348953724E1;-1.234995604E0
1.698267138E0;1.733899117E0;-1.345125294E1;-1.194317579E0
1.700715680E0;1.621436477E0;-1.334327602E1;-1.124925733E0
1.703165003E0;1.491924882E0;-1.317817116E1;-1.079462171E0
1.705613492E0;1.377069473E0;-1.293649673E1;-1.053141117E0
1.708061200E0;1.247856975E0;-1.271366501E1;-1.026820064E0
1.710509742E0;1.111466169E0;-1.241695499E1;-9.382855892E-1
1.712959065E0;9.723833203E-1;-1.216780186E1;-8.928219676E-1
1.715407555E0;8.335995674E-1;-1.188066387E1;-8.087740541E-1
1.717855263E0;6.613163352E-1;-1.164108181E1;-7.369893789E-1
1.720303805E0;4.842474759E-1;-1.139222908E1;-6.436693072E-1
1.722753128E0;2.949153781E-1;-1.114576817E1;-5.120640397E-1
1.725201617E0;1.274178028E-1;-1.089661503E1;-4.378865361E-1
1.727649273E0;-4.965107143E-2;-1.069083214E1;-3.517449200E-1
1.730097867E0;-2.629113793E-1;-1.051585770E1;-2.461616248E-1
1.732547190E0;-4.351946115E-1;-1.032203865E1;-2.126621157E-1
1.734995680E0;-5.859424472E-1;-1.013539886E1;-1.552343667E-1
1.737443336E0;-7.345965505E-1;-9.989137650E0;-1.552343667E-1
1.739891930E0;-8.470591903E-1;-9.857531548E0;-1.935195327E-1
1.742341253E0;-9.140582681E-1;-9.697213173E0;-2.703889608E-1
1.744789742E0;-1.024128079E0;-9.536893845E0;-2.413759828E-1
1.747237450E0;-1.155733347E0;-9.381061554E0;-2.150549293E-1
1.749685992E0;-1.239482164E0;-9.220742226E0;-2.533400953E-1
1.752135315E0;-1.234696507E0;-9.007781029E0;-3.326023519E-1
1.754583805E0;-1.172483087E0;-8.825627327E0;-4.043870270E-1
1.757031461E0;-1.122233868E0;-8.636593819E0;-4.498506486E-1
1.759480055E0;-1.131805062E0;-8.464310646E0;-3.924229145E-1
1.761929378E0;-1.141376376E0;-8.339883804E0;-3.661018610E-1
1.764377867E0;-1.158126116E0;-8.215158463E0;-3.541377485E-1
1.766825523E0;-1.134197950E0;-8.129016876E0;-3.828516304E-1
1.769274117E0;-1.079162955E0;-8.023732185E0;-4.283152521E-1
1.771723440E0;-1.031306505E0;-7.913662910E0;-4.450650215E-1
1.774171930E0;-9.858429432E-1;-7.841877937E0;-4.642075896E-1
1.776619586E0;-9.332008362E-1;-7.798807144E0;-5.000999570E-1
1.779068180E0;-8.662018180E-1;-7.726723194E0;-5.312066078E-1
1.781517503E0;-8.063812256E-1;-7.659724236E0;-5.383850932E-1
1.783965992E0;-7.417750359E-1;-7.626224995E0;-5.359922647E-1
1.786413648E0;-7.031907439E-1;-7.587939739E0;-4.761717021E-1
1.788862242E0;-6.457630396E-1;-7.575975418E0;-4.618147612E-1
1.791311513E0;-6.194419861E-1;-7.578368187E0;-4.354937077E-1
1.793760055E0;-5.715855360E-1;-7.611867905E0;-4.283152521E-1
1.796207711E0;-5.620142221E-1;-7.595118046E0;-3.900300860E-1
1.798656305E0;-5.285146832E-1;-7.602296829E0;-3.637090325E-1
1.801105575E0;-4.998008311E-1;-7.597510815E0;-3.469592929E-1
1.803554117E0;-5.069792867E-1;-7.621439457E0;-3.254238665E-1
1.806001773E0;-4.974080026E-1;-7.623832226E0;-2.967100143E-1
1.808450315E0;-5.356931686E-1;-7.614260674E0;-2.823530734E-1
1.810899638E0;-5.380859971E-1;-7.645367622E0;-2.656033039E-1
1.813348180E0;-6.146563292E-1;-7.638188839E0;-1.408774406E-1
1.815795836E0;-6.026921868E-1;-7.623832226E0;-1.456630826E-1
1.818244430E0;-6.888338327E-1;-7.645367622E0;-9.541380405E-2
1.820693700E0;-6.936194897E-1;-7.626224995E0;-7.627122104E-2
1.823142242E0;-6.792625189E-1;-7.611867905E0;-8.344969153E-2
1.825589898E0;-6.984050870E-1;-7.602296829E0;-1.121635586E-1
1.828038440E0;-7.106683254E-1;-7.583154202E0;-1.384846121E-1
1.830487763E0;-7.274180651E-1;-7.566404343E0;-1.336989701E-1
1.832936305E0;-7.322037220E-1;-7.508976460E0;-1.767697781E-1
1.835383961E0;-7.680960894E-1;-7.468298435E0;-1.839482337E-1
1.837832503E0;-7.848458290E-1;-7.444370270E0;-1.959123611E-1
1.840281825E0;-8.303094506E-1;-7.384549618E0;-2.078764737E-1
1.842730367E0;-8.638089895E-1;-7.329514980E0;-2.198405862E-1
1.845178023E0;-9.092726111E-1;-7.248158932E0;-2.727817893E-1
1.847626565E0;-9.451649189E-1;-7.195516586E0;-2.775674164E-1
1.850075888E0;-9.786644578E-1;-7.125825882E0;-3.182454109E-1
1.852524430E0;-1.004985452E0;-7.089933395E0;-3.134597540E-1
1.854972086E0;-1.019342422E0;-7.034898758E0;-3.565305769E-1
1.857420628E0;-1.038485050E0;-6.967899323E0;-3.924229145E-1
1.859869950E0;-1.067198873E0;-6.876972198E0;-3.804588020E-1
1.862318492E0;-1.103091240E0;-6.805187702E0;-4.378865361E-1
1.864766148E0;-1.160519004E0;-6.762116909E0;-4.666004181E-1
1.867214690E0;-1.162911773E0;-6.723831654E0;-4.833501875E-1
1.869664013E0;-1.208375454E0;-6.680760860E0;-4.761717021E-1
1.872112503E0;-1.237089276E0;-6.654439926E0;-4.713860750E-1
1.874560211E0;-1.282852054E0;-6.584748745E0;-4.785645306E-1
1.877008753E0;-1.294816136E0;-6.548856258E0;-4.570291340E-1
1.879458075E0;-1.318744421E0;-6.472286224E0;-4.235295951E-1
1.881906565E0;-1.313958764E0;-6.412465572E0;-4.426721931E-1
1.884354273E0;-1.282852054E0;-6.359823704E0;-4.402793646E-1
1.886802815E0;-1.261017561E0;-6.302395821E0;-4.115654826E-1
1.889252138E0;-1.239482164E0;-6.256932259E0;-4.211367965E-1
1.891700628E0;-1.205982566E0;-6.249753475E0;-4.043870270E-1
1.894148336E0;-1.172483087E0;-6.218647003E0;-3.780659735E-1
1.896596878E0;-1.103091240E0;-6.173183441E0;-3.493520916E-1
1.899046200E0;-1.028913736E0;-6.163611889E0;-3.230310678E-1
1.901494690E0;-9.284151793E-1;-6.154040813E0;-3.110669553E-1
1.903942398E0;-8.422735929E-1;-6.149255276E0;-3.110669553E-1
1.906390940E0;-7.226324677E-1;-6.120541096E0;-3.182454109E-1
1.908840263E0;-5.883352757E-1;-6.130112648E0;-3.182454109E-1
1.911288753E0;-4.423730969E-1;-6.149255276E0;-3.230310678E-1
1.913736409E0;-3.011965454E-1;-6.146862507E0;-3.708875179E-1
1.916185003E0;-1.357926875E-1;-6.187540054E0;-3.708875179E-1
1.918634325E0;-6.580262445E-3;-6.223432541E0;-4.378865361E-1
1.921082815E0;1.609173268E-1;-6.256932259E0;-5.264210105E-1
1.923530523E0;3.068794906E-1;-6.309574127E0;-6.125625968E-1
1.925979065E0;4.986044168E-1;-6.357430458E0;-7.034898400E-1
1.928428388E0;6.661019921E-1;-6.395715714E0;-7.992027402E-1
1.930876878E0;8.144569993E-1;-6.479464531E0;-8.952147961E-1
1.933324534E0;9.556335211E-1;-6.563213348E0;-1.010070205E0
1.935773128E0;1.075573802E0;-6.644868374E0;-1.153639674E0
1.938222450E0;1.264606714E0;-6.733402729E0;-1.299601793E0
1.940670940E0;1.381855130E0;-6.872186661E0;-1.448255897E0
1.943118596E0;1.595115423E0;-7.006184578E0;-1.642074585E0
1.945567190E0;1.724327803E0;-7.128218651E0;-1.833500385E0
1.948016513E0;1.860718727E0;-7.331907749E0;-2.018046856E0
1.950465003E0;1.973181367E0;-7.508976460E0;-2.204686880E0
1.952912659E0;2.124228239E0;-7.738687515E0;-2.396112680E0
1.955361253E0;2.291725874E0;-7.937591076E0;-2.664407969E0
1.957810575E0;2.442473650E0;-8.210372925E0;-2.965903759E0
1.960259065E0;2.578864574E0;-8.471489906E0;-3.205485106E0
1.962706721E0;2.729911566E0;-8.813663483E0;-3.444767237E0
1.965155315E0;2.892623425E0;-9.148957253E0;-3.725026608E0
1.967604638E0;3.045764208E0;-9.505786896E0;-3.957130432E0
1.970053128E0;3.306880951E0;-9.835996628E0;-4.201497555E0
1.972500784E0;3.510270834E0;-1.014257717E1;-4.385744572E0
1.974949378E0;3.704089403E0;-1.046082211E1;-4.577170849E0
1.977398700E0;3.989134550E0;-1.073390293E1;-4.735096931E0
1.979847190E0;4.166203499E0;-1.103300571E1;-4.902893543E0
1.982294846E0;4.400999069E0;-1.129651546E1;-5.005784988E0
1.984743440E0;4.594817638E0;-1.155254745E1;-5.099104881E0
1.987192763E0;4.786243439E0;-1.176102257E1;-5.156532764E0
1.989641253E0;4.920540810E0;-1.194526958E1;-5.235496044E0
1.992088909E0;5.049753189E0;-1.216301632E1;-5.329114914E0
1.994537503E0;5.155037403E0;-1.233081341E1;-5.384150028E0
1.996986773E0;5.277071476E0;-1.246959686E1;-5.499005318E0
1.999435315E0;5.370391369E0;-1.261316681E1;-5.688038349E0
2.001882971E0;5.437390327E0;-1.266820145E1;-5.896512985E0
2.004331565E0;5.461318493E0;-1.270170116E1;-6.104688644E0
2.006780888E0;5.473581791E0;-1.265384388E1;-6.279364586E0
2.009229378E0;5.497509956E0;-1.254138184E1;-6.518946171E0
2.011677034E0;5.473581791E0;-1.240977669E1;-6.703193665E0
2.014125628E0;5.432604790E0;-1.220847988E1;-6.961618423E0
2.016574898E0;5.341677666E0;-1.197637653E1;-7.167700291E0
2.019023440E0;5.226821899E0;-1.176102257E1;-7.363911629E0
2.021471096E0;5.004289627E0;-1.149272728E1;-7.529016495E0
2.023919690E0;4.757529736E0;-1.122712421E1;-7.605885983E0
2.026369013E0;4.456034184E0;-1.096361446E1;-7.639385223E0
2.028817503E0;4.137489319E0;-1.070279694E1;-7.608278751E0
2.031265159E0;3.812065601E0;-1.048475075E1;-7.502695560E0
2.033713700E0;3.479164124E0;-1.025025368E1;-7.351947784E0
2.036163023E0;3.151048422E0;-1.006600666E1;-7.131807804E0
2.038611565E0;2.784946442E0;-9.883852959E0;-6.868298531E0
2.041059221E0;2.442473650E0;-9.733105659E0;-6.593123913E0
2.043507815E0;2.061715841E0;-9.601499557E0;-6.348756790E0
2.045957086E0;1.731506228E0;-9.436096191E0;-5.982655048E0
2.048405628E0;1.384247899E0;-9.304491043E0;-5.633003712E0
2.050853284E0;1.099501967E0;-9.180064201E0;-5.283352375E0
2.053301878E0;8.383852243E-1;-9.096315384E0;-5.058426857E0
2.055751148E0;6.900302172E-1;-8.959924698E0;-4.771288395E0
2.058199690E0;5.177469850E-1;-8.842376709E0;-4.412065983E0
2.060647346E0;3.786641955E-1;-8.737092972E0;-3.940380573E0
2.063095940E0;3.164508045E-1;-8.605487823E0;-3.468695641E0
2.065545211E0;3.020938635E-1;-8.471489906E0;-2.956332445E0
2.067993753E0;3.571287692E-1;-8.327919960E0;-2.475075960E0
2.070441409E0;4.316053987E-1;-8.188837051E0;-1.972583175E0
2.072889950E0;4.962115884E-1;-8.090731621E0;-1.465005636E0
2.075339273E0;6.230311990E-1;-8.109873772E0;-1.086640596E0
2.077787815E0;6.948158741E-1;-8.227122307E0;-7.034898400E-1
2.080235471E0;6.996015310E-1;-8.447561264E0;-3.445664644E-1
2.082684065E0;6.254240274E-1;-8.792127609E0;-2.093719784E-3
2.085133336E0;5.009972453E-1;-9.345169067E0;1.941177398E-1
2.087581878E0;3.643072546E-1;-1.003489971E1;3.451646566E-1
2.090029534E0;2.350948304E-1;-1.078415298E1;3.499503136E-1
2.092478128E0;1.752742529E-1;-1.153340530E1;2.850449979E-1
2.094927398E0;1.561316848E-1;-1.222283745E1;2.300100774E-1
2.097375940E0;1.728814393E-1;-1.282403374E1;1.630110443E-1
2.099823596E0;2.159522474E-1;-1.329541969E1;1.007976532E-1
2.102272138E0;2.877369225E-1;-1.367378521E1;7.926224917E-2
2.104721461E0;3.738785386E-1;-1.388913918E1;8.165507019E-2
2.107170003E0;4.459623098E-1;-1.400190067E1;1.438684613E-1
2.109617659E0;4.121637046E-1;-1.402822208E1;1.893320978E-1
2.112066200E0;4.049852192E-1;-1.391545963E1;3.260220885E-1
2.114515523E0;3.738785386E-1;-1.367378521E1;4.959124923E-1
2.116964065E0;4.196412563E-1;-1.328584862E1;6.658028960E-1
2.119411721E0;5.057829022E-1;-1.280489159E1;8.428717852E-1
2.121860263E0;6.900302172E-1;-1.231645679E1;9.364909530E-1
2.124309586E0;8.814560175E-1;-1.183041382E1;8.982058167E-1
2.126758128E0;1.109073281E0;-1.137308598E1;7.782655358E-1
2.129205784E0;1.333998680E0;-1.097318554E1;5.413761139E-1
2.131654325E0;1.556830287E0;-1.068843937E1;2.371885478E-1
2.134103648E0;1.760220170E0;-1.051346493E1;-1.552343667E-1
2.136552190E0;1.901396751E0;-1.053978539E1;-5.575276613E-1
2.138999846E0;1.899003863E0;-1.076500988E1;-9.454640746E-1
2.141448388E0;1.810469389E0;-1.117448139E1;-1.187139153E0
2.143897711E0;1.709970832E0;-1.162911797E1;-1.421934843E0
2.146346253E0;1.645364642E0;-1.209841061E1;-1.522433400E0
2.148793909E0;1.642971873E0;-1.246241856E1;-1.539183140E0
2.151242450E0;1.731506228E0;-1.269930840E1;-1.481755376E0
2.153691773E0;1.784148335E0;-1.281206989E1;-1.311565876E0
2.156140315E0;1.870290041E0;-1.280219936E1;-1.089033365E0
2.158587971E0;1.896611094E0;-1.268016529E1;-7.609176040E-1
2.161036513E0;1.810469389E0;-1.254138184E1;-3.900300860E-1
2.163485836E0;1.592722535E0;-1.225424290E1;3.858426586E-2
2.165934378E0;1.231107235E0;-1.192373466E1;4.073780477E-1
2.168382034E0;7.426723242E-1;-1.151186943E1;6.825526357E-1
2.170830575E0;2.303091735E-1;-1.097318554E1;8.572286963E-1
2.173279898E0;-2.413759828E-1;-1.030050373E1;9.101698995E-1
2.175728440E0;-7.031907439E-1;-9.625428200E0;8.380861282E-1
2.178176096E0;-1.064806104E0;-8.897710800E0;7.567301393E-1
2.180624638E0;-1.421635747E0;-8.215158463E0;6.945167780E-1
2.183073961E0;-1.768594980E0;-7.597510815E0;6.035895348E-1
2.185522503E0;-2.137388945E0;-7.094718933E0;5.844469070E-1
2.187970159E0;-2.482254505E0;-6.659225464E0;4.863412082E-1
2.190418700E0;-2.838784933E0;-6.335895061E0;3.140579760E-1
2.192868023E0;-3.152543783E0;-6.127719879E0;7.447660714E-2
2.195316565E0;-3.456432343E0;-6.019743443E0;-1.863410622E-1
2.197764221E0;-3.741477251E0;-5.947958946E0;-4.570291340E-1
2.200212763E0;-3.992723703E0;-5.921638012E0;-7.441678643E-1
2.202662086E0;-4.217947960E0;-5.907280922E0;-9.311071038E-1
2.205110628E0;-4.361517429E0;-5.907280922E0;-1.050748229E0
2.207558284E0;-4.445266247E0;-5.912066460E0;-1.060319543E0
2.210006825E0;-4.440480709E0;-5.945566177E0;-1.057926655E0
2.212456148E0;-4.318446636E0;-6.010172367E0;-9.430712461E-1
2.214904690E0;-4.052544117E0;-6.091827393E0;-8.087740541E-1
2.217352346E0;-3.636193037E0;-6.254539490E0;-6.915257573E-1
2.219800888E0;-3.164507866E0;-6.505785465E0;-5.312066078E-1
2.222250211E0;-2.635395050E0;-6.876972198E0;-2.775674164E-1
2.224698753E0;-2.091925144E0;-7.367800236E0;9.870393202E-3
2.227146409E0;-1.498206019E0;-7.935198307E0;3.690928817E-1
2.229594950E0;-9.092726111E-1;-8.603095055E0;7.663014531E-1
2.232044273E0;-3.681955934E-1;-9.282955170E0;1.194915771E0
2.234492815E0;2.159522474E-1;-9.981958389E0;1.563709617E0
2.236940471E0;7.977072597E-1;-1.068604660E1;1.970489502E0
2.239389013E0;1.338784218E0;-1.135872936E1;2.344068766E0
2.241838336E0;1.858325839E0;-1.203619671E1;2.679363251E0
2.244286878E0;2.363510609E0;-1.257727432E1;2.964108944E0
2.246734534E0;2.818445921E0;-1.307049465E1;3.186940670E0
2.249183128E0;3.213261604E0;-1.352064419E1;3.335295677E0
2.251632398E0;3.598805189E0;-1.386521053E1;3.421437263E0
2.254080940E0;3.912564039E0;-1.411197090E1;3.457329512E0
2.256528596E0;4.115953922E0;-1.429143238E1;3.423830032E0
2.258977138E0;4.214059830E0;-1.438235950E1;3.354438305E0
2.261426461E0;4.235595226E0;-1.432971764E1;3.251546860E0
2.263875003E0;4.161417484E0;-1.418375492E1;3.052643538E0
2.266322659E0;3.998705626E0;-1.393011570E1;2.837289333E0
2.268771200E0;3.788137436E0;-1.358046532E1;2.629113913E0
2.271220523E0;3.550948858E0;-1.311356544E1;2.315355062E0
2.273669065E0;3.369094372E0;-1.258684540E1;1.992323995E0
2.276116721E0;3.117548704E0;-1.202184010E1;1.668993831E0
2.278565263E0;2.863909483E0;-1.149751282E1;1.362413406E0
2.281014586E0;2.648256540E0;-1.102582741E1;1.039382339E0
2.283463128E0;2.418545485E0;-1.065494061E1;6.825526357E-1
2.285910784E0;2.148156643E0;-1.033400249E1;3.858426511E-1
2.288359325E0;1.851147413E0;-1.011864853E1;1.582254022E-1
2.290808648E0;1.503889084E0;-9.958030701E0;-9.272187948E-3
2.293257190E0;1.216750264E0;-9.840782166E0;-6.430710852E-2
2.295704846E0;9.340981245E-1;-9.768997192E0;-8.584251255E-2
2.298153388E0;6.014958024E-1;-9.771389961E0;-1.884347759E-2
2.300602711E0;2.901297510E-1;-9.792925835E0;1.151545867E-1
2.303051253E0;5.084748194E-2;-9.804889679E0;2.204387933E-1
2.305498909E0;-1.022931710E-1;-9.864710808E0;2.826521695E-1
2.307947450E0;-2.557329237E-1;-9.948459625E0;3.714857101E-1
2.310396773E0;-3.346960545E-1;-1.000379372E1;4.576273263E-1
2.312845315E0;-3.681955934E-1;-1.006600666E1;5.270192027E-1
2.315292971E0;-4.399802685E-1;-1.015693378E1;6.346961856E-1
2.317741565E0;-3.921238184E-1;-1.023589706E1;7.543373108E-1
2.320190836E0;-3.610171080E-1;-1.024307537E1;8.790631890E-1
2.322639378E0;-2.796611488E-1;-1.032443142E1;1.022632599E0
2.325087034E0;-1.815554202E-1;-1.034118080E1;1.175773263E0
2.327535628E0;-9.990034252E-2;-1.033160973E1;1.369591832E0
2.329984898E0;2.691925503E-2;-1.032682419E1;1.513460279E0
2.332433440E0;1.585244983E-1;-1.030050373E1;1.597209096E0
2.334881096E0;2.805584669E-1;-1.027657509E1;1.661815286E0
2.337329690E0;3.978067636E-1;-1.023589706E1;1.688136339E0
2.339778961E0;5.273182988E-1;-1.022154045E1;1.712064624E0
2.342227503E0;6.110670567E-1;-1.020957565E1;1.697707653E0
2.344675159E0;6.708876491E-1;-1.020718288E1;1.704886079E0
2.347123753E0;7.139584422E-1;-1.020718288E1;1.688136339E0
2.349573023E0;7.809575200E-1;-1.016171932E1;1.640279889E0
2.352021565E0;8.455637097E-1;-1.011864853E1;1.606780410E0
2.354469221E0;8.312067389E-1;-1.010189915E1;1.582852125E0
2.356917763E0;8.192426562E-1;-1.009232807E1;1.525424480E0
2.359367086E0;7.450651526E-1;-1.008514881E1;1.499103427E0
2.361815628E0;6.278168559E-1;-1.004207802E1;1.444068432E0
2.364263284E0;5.081757307E-1;-1.001815033E1;1.371984720E0
2.366711878E0;3.714857101E-1;-9.965209007E0;1.316949725E0
2.369161148E0;2.685943544E-1;-9.912567139E0;1.199701428E0
2.371609690E0;1.824527234E-1;-9.879067421E0;1.017846942E0
2.374057346E0;1.256231871E-2;-9.895816803E0;8.718847632E-1
2.376505940E0;-9.032905847E-2;-9.855138779E0;7.232306600E-1
2.378955211E0;-1.767697781E-1;-9.797711372E0;5.629115105E-1
2.381403753E0;-3.011965454E-1;-9.768997192E0;4.863412082E-1
2.383851409E0;-4.471587241E-1;-9.749855042E0;4.480560422E-1
2.386300003E0;-5.644070506E-1;-9.723533630E0;4.265206456E-1
2.388749273E0;-6.577271223E-1;-9.713962555E0;4.097708762E-1
2.391197815E0;-7.274180651E-1;-9.692427635E0;3.475574851E-1
2.393645471E0;-8.111668825E-1;-9.642177582E0;3.308077157E-1
2.396094065E0;-8.781659007E-1;-9.587142944E0;3.260220885E-1
2.398543388E0;-8.973084688E-1;-9.539286613E0;2.994019389E-1
2.400991878E0;-9.068797827E-1;-9.508179665E0;3.523431420E-1
2.403439534E0;-8.925228715E-1;-9.438788414E0;3.738785386E-1
2.405888128E0;-8.973084688E-1;-9.419346809E0;4.528416991E-1
2.408337450E0;-8.303094506E-1;-9.314062119E0;5.629115105E-1
2.410785940E0;-7.393822074E-1;-9.275776863E0;6.849454641E-1
2.413233596E0;-6.146563292E-1;-9.268598557E0;6.801598072E-1
2.415682190E0;-5.021936297E-1;-9.237491608E0;7.232306600E-1
2.418131513E0;-5.356931686E-1;-9.261420250E0;8.093722463E-1
2.420580003E0;-5.141577721E-1;-9.266205788E0;8.237292171E-1
2.423027659E0;-3.753740489E-1;-9.218349457E0;7.543373108E-1
2.425476253E0;-2.700898647E-1;-9.192028046E0;7.471588850E-1
2.427925575E0;-1.695913076E-1;-9.177671432E0;7.543373108E-1
2.430374065E0;-1.262213886E-1;-9.175278664E0;7.351947427E-1
2.432821721E0;-2.333002165E-2;-9.146564484E0;7.040880919E-1
2.435270315E0;7.238288224E-2;-9.144171715E0;6.658028960E-1
2.437719638E0;9.152546525E-2;-9.129815102E0;6.466603279E-1
2.440168128E0;1.848455518E-1;-9.141778946E0;6.969096065E-1
2.442615784E0;2.039881349E-1;-9.180064201E0;7.256234884E-1
2.445064378E0;2.614158690E-1;-9.151350021E0;7.710871100E-1
2.447513700E0;3.667000830E-1;-9.129815102E0;8.718847632E-1
2.449962190E0;4.627120793E-1;-9.108279228E0;9.364909530E-1
2.452409846E0;5.919244885E-1;-9.129815102E0;9.675976634E-1
2.454858440E0;6.756733060E-1;-9.163313866E0;9.939187169E-1
2.457307763E0;7.546364665E-1;-9.160921097E0;9.795617461E-1
2.459756253E0;8.742775917E-1;-9.093922615E0;9.747761488E-1
2.462203909E0;9.532406926E-1;-9.024530411E0;9.508479238E-1
2.464652503E0;1.020538807E0;-8.986245155E0;9.005986452E-1
2.467101825E0;1.070788145E0;-8.967103004E0;8.814560175E-1
2.469550315E0;1.121037364E0;-8.957531929E0;7.998009920E-1
2.471997971E0;1.118644595E0;-8.919246674E0;6.610172391E-1
2.474446565E0;1.207179070E0;-8.775378227E0;6.466603279E-1
2.476895888E0;1.298106313E0;-8.698807716E0;6.897311211E-1
2.479344378E0;1.350748420E0;-8.670093536E0;7.016952634E-1
2.481792086E0;1.341177106E0;-8.634201050E0;6.969096065E-1
2.484240628E0;1.341177106E0;-8.670093536E0;6.969096065E-1
2.486689950E0;1.343569875E0;-8.677271843E0;6.610172391E-1
2.489138440E0;1.362712502E0;-8.722735405E0;6.275177598E-1
2.491586096E0;1.338784218E0;-8.753842354E0;5.796613097E-1
2.494034690E0;1.362712502E0;-8.741878510E0;6.059823632E-1
2.496484013E0;1.379462242E0;-8.717949867E0;6.203392744E-1
2.498932503E0;1.374676585E0;-8.749056816E0;6.394818425E-1
2.501380211E0;1.379462242E0;-8.770592690E0;6.753742099E-1
2.503828753E0;1.369890928E0;-8.811270714E0;6.897311211E-1
2.506278075E0;1.369890928E0;-8.818449020E0;6.873382926E-1
2.508726565E0;1.322034478E0;-8.854341507E0;6.299105883E-1
2.511174273E0;1.331605792E0;-8.775378227E0;6.849454641E-1
2.513622815E0;1.357926846E0;-8.746664047E0;7.232306600E-1
2.516072138E0;1.396211982E0;-8.739485741E0;7.304090858E-1
2.518520628E0;1.355534077E0;-8.782556534E0;7.399803996E-1
2.520968336E0;1.333998680E0;-8.854341507E0;6.945167780E-1
2.523416878E0;1.305284739E0;-8.892925262E0;6.897311211E-1
2.525866200E0;1.283749342E0;-9.010173798E0;6.059823632E-1
2.528314742E0;1.231107235E0;-9.034101486E0;4.025924206E-1
2.530762398E0;1.207179070E0;-9.101100922E0;1.917249113E-1
2.533210940E0;1.133001566E0;-9.079565048E0;1.247258782E-1
2.535660263E0;1.077966571E0;-9.019744873E0;1.175474152E-1
2.538108805E0;1.054038405E0;-9.034101486E0;-4.486542661E-3
2.540556461E0;9.774680734E-1;-9.065208435E0;-8.105687052E-2
2.543005003E0;8.359923959E-1;-9.067601204E0;-2.078764737E-1
2.545454325E0;7.546364665E-1;-9.060422897E0;-3.397808075E-1
2.547902867E0;6.684948206E-1;-9.034101486E0;-4.737788737E-1
2.550350523E0;5.895316601E-1;-9.012566566E0;-6.388836503E-1
2.552799065E0;5.488536954E-1;-8.940781593E0;-7.369893789E-1
2.555248388E0;5.057829022E-1;-8.900103569E0;-7.633104324E-1
2.557696930E0;4.411766827E-1;-8.873483658E0;-7.848458290E-1
2.560144586E0;3.954139352E-1;-8.912068367E0;-7.322037220E-1
2.562593128E0;4.220340848E-1;-9.005388260E0;-8.306085467E-1
2.565042450E0;4.531407952E-1;-9.108279228E0;-9.669994712E-1
2.567490992E0;4.435695112E-1;-9.170493126E0;-1.038784146E0
2.569938648E0;4.025924206E-1;-9.230313301E0;-1.093819022E0
2.572387190E0;4.483551383E-1;-9.275776863E0;-1.060319543E0
2.574836513E0;4.794618487E-1;-9.352347374E0;-1.091426253E0
2.577285055E0;5.512465239E-1;-9.428917885E0;-1.048355460E0
2.579732711E0;6.804589629E-1;-9.536893845E0;-9.837492108E-1
2.582181305E0;8.168498278E-1;-9.649356842E0;-8.401798606E-1
2.584630575E0;1.018146038E0;-9.766604424E0;-6.245267391E-1
2.587079117E0;1.310070395E0;-9.926923752E0;-5.431707501E-1
2.589526773E0;1.583151340E0;-1.004447079E1;-3.565305769E-1
2.591975367E0;1.899003863E0;-1.007318497E1;-1.166501082E-2
2.594424638E0;2.205584288E0;-1.006361389E1;4.097708762E-1
2.596873180E0;2.471187592E0;-1.005165005E1;7.950153351E-1
2.599320836E0;2.720340252E0;-9.960423470E0;1.130309582E0
2.601769430E0;2.962015390E0;-9.804889679E0;1.424925923E0
2.604218700E0;3.129513025E0;-9.651749611E0;1.673779488E0
2.606667242E0;3.244667530E0;-9.534501076E0;1.788634896E0
2.609114898E0;3.316452265E0;-9.481859207E0;1.836491346E0
2.611563492E0;3.318845034E0;-9.481859207E0;1.783849239E0
2.614012815E0;3.299702406E0;-9.512965202E0;1.716850281E0
2.616461305E0;3.225524902E0;-9.620642662E0;1.582852125E0
2.618908961E0;3.127120018E0;-9.792925835E0;1.446461320E0
2.621357555E0;3.069692373E0;-1.003250694E1;1.252343535E0
2.623806878E0;3.031407118E0;-1.024786091E1;1.084846020E0
2.626255367E0;2.988336325E0;-1.051825047E1;8.694919348E-1
2.628703023E0;2.971586704E0;-1.076740265E1;7.040880919E-1
2.631151617E0;2.964408159E0;-1.104975605E1;5.724828243E-1
2.633600940E0;2.933301449E0;-1.127019501E1;4.360919297E-1
2.636049430E0;2.935694218E0;-1.148315620E1;2.682952285E-1
2.638497086E0;2.916551590E0;-1.170120144E1;1.007976532E-1
2.640945680E0;2.918944597E0;-1.184237862E1;-5.952146277E-2
2.643395003E0;2.883052111E0;-1.194048405E1;-2.078764737E-1
2.645843492E0;2.835195780E0;-1.203141117E1;-3.517449200E-1
2.648291148E0;2.808874607E0;-1.207448196E1;-4.666004181E-1
2.650739742E0;2.698804855E0;-1.212233829E1;-5.599204898E-1
2.653189065E0;2.629113913E0;-1.217737389E1;-6.604190469E-1
2.655637555E0;2.540579557E0;-1.220847988E1;-6.795616150E-1
2.658085263E0;2.447259426E0;-1.224197960E1;-6.723831892E-1
2.660533805E0;2.349153519E0;-1.229013538E1;-6.604190469E-1
2.662983128E0;2.251047850E0;-1.238106251E1;-6.675975323E-1
2.665431617E0;2.184048891E0;-1.246481133E1;-6.771687865E-1
2.667879273E0;2.138585329E0;-1.256052399E1;-6.963114142E-1
2.670327867E0;2.124228239E0;-1.269452190E1;-7.776673436E-1
2.672777190E0;2.136192322E0;-1.282642651E1;-8.497511148E-1
2.675225680E0;2.167299032E0;-1.294606781E1;-9.406784177E-1
2.677673388E0;2.217548370E0;-1.302024555E1;-1.019641519E0
2.680121930E0;2.298904419E0;-1.307049465E1;-1.134497046E0
2.682571253E0;2.370688915E0;-1.306331635E1;-1.266102314E0
2.685019742E0;2.478366137E0;-1.304417324E1;-1.460219979E0
2.687467450E0;2.542972326E0;-1.301067448E1;-1.620539188E0
2.689915992E0;2.648256540E0;-1.296281719E1;-1.740180254E0
2.692365315E0;2.715554714E0;-1.286710453E1;-1.840678811E0
2.694813857E0;2.782553673E0;-1.277109241E1;-1.946262121E0
2.697261513E0;2.890230656E0;-1.267059422E1;-2.015654087E0
2.699710055E0;2.962015390E0;-1.252463150E1;-2.056331873E0
2.702159378E0;3.009871721E0;-1.233559895E1;-2.065903187E0
2.704607919E0;3.119941711E0;-1.212233829E1;-2.075474501E0
2.707055575E0;3.174976587E0;-1.193569851E1;-2.041975021E0
2.709504117E0;3.232703447E0;-1.172513008E1;-2.065903187E0
2.711953440E0;3.280559778E0;-1.152144146E1;-2.173580170E0
2.714401982E0;3.292523861E0;-1.130369377E1;-2.240579367E0
2.716849638E0;3.290131092E0;-1.110718346E1;-2.353041887E0
2.719298232E0;3.273381472E0;-1.094447136E1;-2.467897415E0
2.721747503E0;3.244667530E0;-1.082483101E1;-2.583052158E0
2.724196044E0;3.177369356E0;-1.072672462E1;-2.697907448E0
2.726643700E0;3.117548704E0;-1.064297581E1;-2.731407166E0
2.729092294E0;3.014657497E0;-1.058794117E1;-2.731407166E0
2.731541565E0;2.895016193E0;-1.048953629E1;-2.733799934E0
2.733990107E0;2.780160904E0;-1.042014408E1;-2.628515720E0
2.736437763E0;2.655434847E0;-1.037228775E1;-2.496611357E0
2.738886357E0;2.507079840E0;-1.034357452E1;-2.338685036E0
2.741335628E0;2.344367981E0;-1.033639526E1;-2.159223318E0
2.743784169E0;2.167299032E0;-1.034118080E1;-1.943570137E0
2.746231825E0;1.944467545E0;-1.036271667E1;-1.689931035E0
2.748680419E0;1.693221092E0;-1.043210888E1;-1.388435364E0
2.751129742E0;1.494317770E0;-1.056161976E1;-1.112961650E0
2.753578232E0;1.319641709E0;-1.071715355E1;-8.258228898E-1
2.756025888E0;1.130608678E0;-1.088943672E1;-6.484549642E-1
2.758474482E0;1.020538807E0;-1.107368374E1;-5.144568682E-1
2.760923805E0;9.197412133E-1;-1.132283688E1;-4.953143001E-1
2.763372294E0;7.953144312E-1;-1.160519028E1;-4.929214716E-1
2.765819950E0;6.589235067E-1;-1.194287682E1;-5.240281820E-1
2.768268544E0;5.057829022E-1;-1.234277725E1;-5.503492355E-1
2.770717867E0;2.662015259E-1;-1.271845055E1;-6.029912829E-1
2.773166357E0;1.974078640E-2;-1.311595821E1;-6.364908218E-1
2.775614013E0;-2.270190418E-1;-1.351346588E1;-6.699903607E-1
2.778062607E0;-4.686941206E-1;-1.382453251E1;-6.795616150E-1
2.780511930E0;-7.007979155E-1;-1.408086395E1;-6.317051649E-1
2.782960419E0;-9.236295223E-1;-1.428903961E1;-5.024927258E-1
2.785408128E0;-1.141376376E0;-1.447328663E1;-3.254238665E-1
2.787856669E0;-1.342672586E0;-1.465304756E1;-1.456630826E-1
2.790305992E0;-1.457528114E0;-1.478465271E1;-4.486542661E-3
2.792754482E0;-1.505384564E0;-1.483011627E1;1.510469317E-1
2.795202190E0;-1.574776411E0;-1.489950848E1;3.020938635E-1
2.797650732E0;-1.565205097E0;-1.492343616E1;3.930211067E-1
2.800100055E0;-1.555633783E0;-1.497129345E1;4.456632137E-1
2.802548544E0;-1.464706540E0;-1.498325729E1;4.265206456E-1
2.804996253E0;-1.400100350E0;-1.498565006E1;3.451646566E-1
2.807444794E0;-1.244267821E0;-1.496411419E1;2.682952285E-1
2.809894117E0;-1.091127157E0;-1.494497204E1;2.563311160E-1
2.812342659E0;-8.877372146E-1;-1.487318707E1;2.156531364E-1
2.814790315E0;-6.314060688E-1;-1.479422379E1;1.103689447E-1
2.817238857E0;-2.844468057E-1;-1.465783310E1;-1.884347759E-2
2.819688180E0;8.434699476E-2;-1.449272823E1;-1.456630826E-1
2.822136721E0;4.339981973E-1;-1.431775379E1;-2.318046987E-1
2.824584378E0;6.278168559E-1;-1.413589859E1;-2.632105052E-1
2.827032919E0;7.498508096E-1;-1.394447327E1;-2.679961324E-1
2.829482242E0;7.977072597E-1;-1.370010567E1;-2.895315289E-1
2.831930784E0;9.125627279E-1;-1.346560955E1;-3.254238665E-1
2.834378440E0;1.010967612E0;-1.319492149E1;-3.828516304E-1
2.836827034E0;1.195214868E0;-1.301067448E1;-5.240281820E-1
2.839276305E0;1.389033556E0;-1.285753345E1;-7.992027402E-1
2.841724846E0;1.633400559E0;-1.272562885E1;-1.050748229E0
2.844172503E0;1.889432549E0;-1.264905834E1;-1.345065475E0
2.846621096E0;2.004287958E0;-1.263948727E1;-1.505683661E0
2.849070419E0;2.160120726E0;-1.263948727E1;-1.649253011E0
2.851518909E0;2.229512453E0;-1.269930840E1;-1.675574064E0
2.853966565E0;2.255833626E0;-1.275434303E1;-1.610967875E0
2.856415159E0;2.241476536E0;-1.277827072E1;-1.424327731E0
2.858864430E0;2.212762833E0;-1.280728436E1;-1.160818100E0
2.861312971E0;2.092822552E0;-1.279741383E1;-9.334999323E-1
2.863760628E0;2.011466503E0;-1.277109241E1;-8.425726891E-1
2.866209221E0;1.798505306E0;-1.266820145E1;-7.322037220E-1
2.868658544E0;1.592722535E0;-1.258923817E1;-7.058826685E-1
2.871107034E0;1.377069473E0;-1.241934776E1;-6.269195080E-1
2.873554690E0;1.207179070E0;-1.225902843E1;-5.886343718E-1
2.876003284E0;1.154536963E0;-1.207448196E1;-5.982056856E-1
2.878452607E0;1.142572761E0;-1.184237862E1;-5.623133183E-1
2.880901096E0;1.049252748E0;-1.165065384E1;-4.522434771E-1
2.883348753E0;1.010967612E0;-1.141376400E1;-4.570291340E-1
2.885797346E0;9.245268703E-1;-1.120558834E1;-3.302095234E-1
2.888246669E0;7.833502889E-1;-1.098036385E1;-1.719841212E-1
2.890695159E0;6.421737671E-1;-1.078654575E1;-4.486542661E-3
2.893142867E0;5.536393523E-1;-1.060947609E1;1.342971772E-1
2.895591409E0;4.363910258E-1;-1.045125103E1;3.092723191E-1
2.898040732E0;3.379862010E-1;-1.029571724E1;4.528416991E-1
2.900489221E0;2.279163599E-1;-1.013300610E1;6.179464459E-1
2.902936930E0;1.226321608E-1;-9.991530418E0;7.040880919E-1
2.905385471E0;-6.580262445E-3;-9.845567703E0;7.878368497E-1
2.907834794E0;-1.552343667E-1;-9.673284531E0;8.548358679E-1
2.910283336E0;-3.538386524E-1;-9.544072151E0;9.388837814E-1
2.912730992E0;-5.213362575E-1;-9.369096756E0;9.340981245E-1
2.915179534E0;-6.314060688E-1;-9.192028046E0;8.982058167E-1
2.917628857E0;-7.055835724E-1;-9.038887978E0;8.404789567E-1
2.920077398E0;-7.872386575E-1;-8.859127045E0;7.447660565E-1
2.922525055E0;-8.494520187E-1;-8.674879074E0;6.753742099E-1
2.924973596E0;-9.164510965E-1;-8.504988670E0;5.820540786E-1
2.927422919E0;-9.810572863E-1;-8.294121742E0;4.528416991E-1
2.929871461E0;-1.012163997E0;-8.121838570E0;3.332005441E-1
2.932319117E0;-1.004985452E0;-7.959126472E0;2.252244353E-1
2.934767711E0;-9.810572863E-1;-7.777271748E0;1.175474152E-1
2.937216982E0;-9.834501147E-1;-7.669295788E0;1.704886183E-2
2.939665523E0;-1.012163997E0;-7.537690639E0;-4.037888348E-2
2.942113180E0;-1.067198873E0;-7.408477783E0;-5.952146277E-2
2.944561773E0;-1.110269666E0;-7.291229725E0;-1.097707376E-1
2.947011044E0;-1.127019525E0;-7.159325123E0;-1.289133132E-1
2.949459586E0;-1.129412293E0;-7.034898758E0;-1.624128371E-1
2.951907242E0;-1.117448211E0;-6.948757172E0;-1.839482337E-1
2.954355836E0;-1.136590719E0;-6.896114826E0;-2.389831543E-1
2.956805159E0;-1.162911773E0;-6.833901405E0;-2.270190418E-1
2.959253648E0;-1.160519004E0;-6.769295216E0;-2.222333997E-1
2.961701305E0;-1.182054400E0;-6.735795975E0;-2.030908167E-1
2.964149898E0;-1.237089276E0;-6.692724705E0;-1.289133132E-1
2.966599221E0;-1.278066397E0;-6.649653912E0;-5.473581702E-2
2.969047711E0;-1.316351533E0;-6.632605076E0;3.858426586E-2
2.971495419E0;-1.337886930E0;-6.615855694E0;1.582254022E-1
2.973943961E0;-1.373779297E0;-6.618248463E0;2.922234535E-1
2.976393284E0;-1.368993640E0;-6.654439926E0;4.145565331E-1
2.978841773E0;-1.373779297E0;-6.654439926E0;5.365904570E-1
2.981289482E0;-1.412064433E0;-6.704689026E0;6.705885530E-1
2.983738023E0;-1.380957723E0;-6.738188744E0;7.328019142E-1
2.986187346E0;-1.268195987E0;-6.719046116E0;7.974081635E-1
2.988635836E0;-1.165304661E0;-6.738188744E0;8.596215248E-1
2.991083544E0;-1.098305583E0;-6.778866768E0;9.293124676E-1
2.993532086E0;-1.069591761E0;-6.788437843E0;9.819545746E-1
2.995981409E0;-1.038485050E0;-6.853044033E0;1.017846942E0
2.998429950E0;-1.014556766E0;-6.862615108E0;1.013061285E0
3.000877607E0;-9.714859724E-1;-6.898507595E0;9.915258884E-1
3.003326148E0;-8.829515576E-1;-6.932007313E0;9.484550953E-1
3.005775471E0;-8.159525394E-1;-6.922435760E0;8.524430394E-1
3.008224013E0;-7.704889178E-1;-6.927221775E0;7.591229677E-1
3.010671669E0;-7.441678643E-1;-6.946363926E0;6.801598072E-1
3.013120211E0;-6.816553473E-1;-6.934400082E0;5.988038778E-1
3.015569534E0;-6.194419861E-1;-6.939185619E0;5.054838061E-1
3.018018075E0;-5.691927075E-1;-6.915257454E0;3.858426511E-1
3.020465732E0;-5.931209326E-1;-6.910471916E0;3.355933726E-1
3.022914325E0;-5.021936297E-1;-6.869793892E0;2.611167729E-1
3.025363596E0;-4.998008311E-1;-6.867401123E0;2.132603228E-1
3.027812138E0;-5.141577721E-1;-6.805187702E0;1.917249113E-1
3.030259794E0;-5.309075117E-1;-6.735795975E0;1.486541033E-1
3.032708388E0;-5.141577721E-1;-6.692724705E0;1.462612897E-1
3.035157711E0;-5.141577721E-1;-6.601498604E0;1.151545867E-1
3.037606200E0;-4.950151742E-1;-6.532106876E0;1.127617657E-1
3.040053857E0;-4.950151742E-1;-6.434000969E0;1.677966863E-1
3.042502450E0;-5.093721151E-1;-6.357430458E0;2.156531364E-1
3.044951773E0;-4.854438901E-1;-6.288038731E0;2.467598319E-1
3.047400263E0;-4.782654345E-1;-6.225825310E0;2.802593410E-1
3.049847919E0;-4.663013220E-1;-6.110970020E0;3.834498227E-1
3.052296513E0;-4.543372095E-1;-6.053243160E0;4.313062727E-1
3.054745836E0;-4.375874400E-1;-5.971887112E0;4.360919297E-1
3.057194325E0;-4.280161560E-1;-5.947958946E0;4.624129832E-1
3.059642034E0;-4.160520434E-1;-5.859424591E0;5.413761139E-1
3.062090575E0;-4.064807594E-1;-5.813961029E0;5.461617708E-1
3.064539898E0;-3.969094455E-1;-5.761318684E0;5.964110494E-1
3.066988388E0;-4.112663865E-1;-5.734997749E0;5.940182209E-1
3.069436096E0;-4.447658956E-1;-5.699105263E0;5.892325640E-1
3.071884638E0;-4.423730969E-1;-5.679962635E0;5.030909777E-1
3.074333961E0;-4.495515525E-1;-5.696712494E0;4.600201547E-1
3.076782503E0;-4.615156651E-1;-5.715855122E0;3.451646566E-1
3.079230159E0;-4.471587241E-1;-5.720640659E0;2.706880569E-1
3.081678700E0;-4.375874400E-1;-5.727818966E0;2.156531364E-1
3.084128023E0;-4.375874400E-1;-5.763711452E0;8.883354068E-2
3.086576565E0;-4.304089844E-1;-5.825924873E0;1.226321608E-2
3.089024221E0;-4.184448719E-1;-5.921638012E0;-1.097707376E-1
3.091472763E0;-3.849453330E-1;-6.017350674E0;-2.054836452E-1
3.093922086E0;-3.705884218E-1;-6.144469261E0;-3.086741269E-1
3.096370628E0;-3.107678294E-1;-6.278467655E0;-4.713860750E-1
3.098818284E0;-2.916252613E-1;-6.422036648E0;-5.982056856E-1
3.101266878E0;-1.959123611E-1;-6.553642273E0;-7.728816867E-1
3.103716148E0;-1.405783296E-1;-6.745367050E0;-1.002891779E0
3.106164690E0;-4.725824669E-2;-6.924828529E0;-1.175175071E0
3.108612346E0;1.974078640E-2;-7.087540627E0;-1.395613790E0
3.111060940E0;1.298106313E-1;-7.272087097E0;-1.649253011E0
3.113510263E0;2.135594189E-1;-7.475477219E0;-1.941177368E0
3.115958753E0;3.595215976E-1;-7.633403301E0;-2.199901342E0
3.118406409E0;4.698905349E-1;-7.882555962E0;-2.516052961E0
3.120855003E0;6.086742878E-1;-8.162516594E0;-2.846262455E0
3.123304325E0;7.929216027E-1;-8.445168495E0;-3.176771164E0
3.125752815E0;1.008574724E0;-8.751449585E0;-3.506980658E0
3.128200523E0;1.274178028E0;-9.101100922E0;-3.894917011E0
3.130649065E0;1.540080428E0;-9.431310654E0;-4.294817448E0
3.133098388E0;1.889432549E0;-9.812067986E0;-4.720739841E0
3.135546878E0;2.248655081E0;-1.014018440E1;-5.029713154E0
3.137994586E0;2.617149830E0;-1.047039413E1;-5.355436325E0
3.140443128E0;3.005086184E0;-1.082004452E1;-5.594718456E0
3.142892450E0;3.414557934E0;-1.116251755E1;-5.810072422E0
3.145340992E0;3.800101519E0;-1.150469112E1;-5.953940868E0
3.147788648E0;4.228416920E0;-1.181605721E1;-5.999404430E0
3.150237190E0;4.575675011E0;-1.217498112E1;-5.884549141E0
3.152686513E0;4.942076206E0;-1.254377460E1;-5.726323605E0
3.155135055E0;5.305785179E0;-1.291735363E1;-5.587540150E0
3.157582711E0;5.602794170E0;-1.331934834E1;-5.350650311E0
3.160031253E0;5.832505226E0;-1.377667618E1;-5.111069202E0
3.162480575E0;6.019145489E0;-1.424357605E1;-4.929214478E0
3.164929117E0;6.141478539E0;-1.467458344E1;-4.833501816E0
3.167376773E0;6.210870266E0;-1.500718498E1;-4.732704163E0
3.169825367E0;6.222834587E0;-1.529223061E1;-4.739882469E0
3.172274638E0;6.165406704E0;-1.547408485E1;-4.850251675E0
3.174723180E0;6.139085770E0;-1.546451378E1;-4.981856823E0
3.177170836E0;6.124728680E0;-1.534726524E1;-5.194818020E0
3.179619430E0;5.992824078E0;-1.514148235E1;-5.436792374E0
3.182068753E0;5.799005508E0;-1.486361599E1;-5.719145298E0
3.184517242E0;5.574080467E0;-1.446610832E1;-6.008975983E0
3.186964898E0;5.387141228E0;-1.390110302E1;-6.363113403E0
3.189413492E0;5.131109238E0;-1.327149200E1;-6.710371971E0
3.191862815E0;4.862813950E0;-1.270170116E1;-7.026523590E0
3.194311305E0;4.551746845E0;-1.213669586E1;-7.249056339E0
3.196758961E0;4.228416920E0;-1.161954689E1;-7.390232563E0
3.199207555E0;3.879064560E0;-1.115533924E1;-7.438089371E0
3.201656878E0;3.567698479E0;-1.064297581E1;-7.409375191E0
3.204105367E0;3.232703447E0;-1.017368412E1;-7.347161770E0
3.206553075E0;2.940479994E0;-9.754640579E0;-7.186842918E0
3.209001617E0;2.662912607E0;-9.364311218E0;-6.925725937E0
3.211450940E0;2.406581402E0;-9.029315948E0;-6.605087757E0
3.213899482E0;2.169692039E0;-8.725129128E0;-6.255436420E0
3.216347138E0;1.853540182E0;-8.593523026E0;-5.973083496E0
3.218795680E0;1.559223056E0;-8.538488388E0;-5.865107536E0
3.221245003E0;1.240678549E0;-8.339883804E0;-5.065605640E0
3.223693544E0;9.029914737E-1;-8.361419678E0;-4.323531628E0
3.226141200E0;5.368895531E-1;-8.500203133E0;-3.468695641E0
3.228589794E0;1.824527234E-1;-8.832805634E0;-2.690729141E0
3.231039065E0;-2.006980032E-1;-9.337990761E0;-1.910070658E0
3.233487607E0;-5.069792867E-1;-1.001097202E1;-1.213460207E0
3.235935263E0;-7.657032609E-1;-1.087029457E1;-6.221339107E-1
3.238383857E0;-9.284151793E-1;-1.182084274E1;-1.121635586E-1
3.240833180E0;-9.595218897E-1;-1.283839035E1;3.164508045E-1
3.243281669E0;-8.662018180E-1;-1.382931805E1;5.940182209E-1
3.245729325E0;-6.385845542E-1;-1.469133282E1;7.830511928E-1
3.248177919E0;-2.676970363E-1;-1.535205078E1;8.934201598E-1
3.250627242E0;1.800599098E-1;-1.578305817E1;9.915258884E-1
3.253075732E0;6.637091637E-1;-1.599841213E1;1.060917735E0
3.255523388E0;1.147358418E0;-1.605105400E1;1.202094316E0
3.257971982E0;1.518245935E0;-1.604626846E1;1.400698543E0
3.260421305E0;1.765005827E0;-1.605105400E1;1.807777524E0
3.262869794E0;1.891825438E0;-1.604387665E1;2.370389938E0
3.265317503E0;1.906182289E0;-1.601994705E1;3.021536827E0
3.267766044E0;1.877468467E0;-1.598166275E1;3.699303865E0
3.270215367E0;1.812862277E0;-1.592423439E1;4.261916161E0
3.272663909E0;1.879861236E0;-1.581177235E1;4.477270126E0
3.275111565E0;2.049751759E0;-1.558176231E1;4.276273251E0
3.277560107E0;2.339582443E0;-1.522283840E1;3.723232031E0
3.280009430E0;2.598007202E0;-1.486122322E1;2.877967358E0
3.282457971E0;2.873480797E0;-1.432493210E1;2.023430586E0
3.284905628E0;3.112763166E0;-1.372642708E1;1.204487085E0
3.287354169E0;3.326023579E0;-1.297956753E1;5.102694035E-1
3.289803492E0;3.510270834E0;-1.217737389E1;3.858426586E-2
3.292252034E0;3.644268990E0;-1.135872936E1;-4.277170449E-2
3.294699690E0;3.706482172E0;-1.051107121E1;3.044866920E-1
3.297148284E0;3.661018610E0;-9.740283966E0;9.939187169E-1
3.299597555E0;3.395415306E0;-9.069993973E0;1.850848317E0
3.302046096E0;2.959622622E0;-8.481060982E0;2.765504837E0
3.304493753E0;2.318047047E0;-7.916055679E0;3.538685560E0
3.306942346E0;1.523031592E0;-7.269694328E0;4.082155228E0
3.309391669E0;6.900302172E-1;-6.551249504E0;4.367200375E0
3.311840159E0;-1.480558962E-1;-5.758925915E0;4.309772491E0
3.314287815E0;-9.044869542E-1;-4.949852943E0;3.940979004E0
3.316736409E0;-1.636989832E0;-4.226622105E0;3.306581736E0
3.319185732E0;-2.362314224E0;-3.580260992E0;2.394318104E0
3.321634221E0;-3.073580742E0;-3.058326483E0;1.300199986E0
3.324081930E0;-3.779762506E0;-2.691925526E0;2.662015148E-2
3.326530471E0;-4.452444553E0;-2.457428932E0;-1.400399446E0
3.328979794E0;-5.084448814E0;-2.306680918E0;-2.827120066E0
3.331428284E0;-5.670989513E0;-2.194218397E0;-4.177269936E0
3.333875992E0;-6.209673882E0;-2.182254314E0;-5.384150028E0
3.336324534E0;-6.674180508E0;-2.210968018E0;-6.219544411E0
3.338773857E0;-7.100401878E0;-2.297109842E0;-6.578766823E0
3.341222398E0;-7.435397148E0;-2.500499725E0;-6.422934055E0
3.343670055E0;-7.550551891E0;-2.783151865E0;-5.774179935E0
3.346118596E0;-7.315756321E0;-3.005684376E0;-4.876572609E0
3.348567919E0;-6.798607349E0;-3.137289524E0;-3.930809498E0
3.351016461E0;-6.113960743E0;-3.379263878E0;-3.066402197E0
3.353464117E0;-5.434100151E0;-3.759722471E0;-2.207079887E0
3.355912711E0;-4.713561535E0;-4.281657219E0;-1.390828133E0
3.358361982E0;-4.023830414E0;-4.973781109E0;-5.718846321E-1
3.360810523E0;-3.303291559E0;-5.785246849E0;1.965105534E-1
3.363258180E0;-2.589931488E0;-6.683153629E0;1.025025368E0
3.365706773E0;-1.869392633E0;-7.642974854E0;1.731207132E0
3.368156096E0;-1.170090318E0;-8.660522461E0;2.403889418E0
3.370604586E0;-4.854438901E-1;-9.838389397E0;2.956930637E0
3.373052242E0;1.058823988E-1;-1.109761238E1;3.474079370E0
3.375500836E0;6.637091637E-1;-1.252941799E1;3.866801500E0
3.377950159E0;1.125823021E0;-1.404497147E1;4.125226021E0
3.380398648E0;1.552044630E0;-1.552433395E1;4.276273251E0
3.382846357E0;1.961217284E0;-1.681974792E1;4.321736813E0
3.385294898E0;2.442473650E0;-1.786361694E1;4.273880482E0
3.387744221E0;2.950051308E0;-1.854826355E1;4.096512318E0
3.390192763E0;3.474378586E0;-1.902952003E1;3.828516245E0
3.392640419E0;3.948456526E0;-1.926640892E1;3.543471336E0
3.395088961E0;4.360321045E0;-1.930948067E1;3.273082256E0
3.397538284E0;4.726422787E0;-1.914916229E1;2.906681299E0
3.399986825E0;4.985146999E0;-1.875883293E1;2.494816780E0
3.402434482E0;5.119144917E0;-1.807657814E1;2.181356907E0
3.404883023E0;5.152644634E0;-1.722892189E1;1.901097536E0
3.407332346E0;5.035396099E0;-1.613001823E1;1.664208174E0
3.409780888E0;4.848456860E0;-1.489472294E1;1.412662625E0
3.412228544E0;4.568496704E0;-1.363310719E1;1.192523003E0
3.414677138E0;4.204488277E0;-1.245045471E1;1.013061285E0
3.417126409E0;3.824029684E0;-1.141376400E1;7.926225066E-1
3.419574950E0;3.474378586E0;-1.054217815E1;5.916253924E-1
3.422022607E0;3.105584621E0;-9.843174934E0;4.001995921E-1
3.424471200E0;2.715554714E0;-9.299705505E0;2.443670183E-1
3.426920523E0;2.346760750E0;-8.928817749E0;1.845464408E-1
3.429369013E0;1.966002941E0;-8.677271843E0;1.582254022E-1
3.431816669E0;1.549651742E0;-8.536095619E0;1.749751568E-1
3.434265263E0;1.185643673E0;-8.497810364E0;2.060818523E-1
3.436714586E0;8.359923959E-1;-8.504988670E0;2.276172489E-1
3.439163075E0;4.842474759E-1;-8.567202568E0;3.690928817E-1
3.441610784E0;2.111666054E-1;-8.648558617E0;5.126622319E-1
3.444059325E0;-3.050848842E-2;-8.777770996E0;6.945167780E-1
3.446508648E0;-2.174477577E-1;-8.904889107E0;8.524430394E-1
3.448957190E0;-3.490529954E-1;-9.029315948E0;1.036989570E0
3.451404846E0;-4.567300081E-1;-9.151350021E0;1.295414329E0
3.453853388E0;-4.519443810E-1;-9.268598557E0;1.513460279E0
3.456302711E0;-4.423730969E-1;-9.412167549E0;1.800599098E0
3.458751253E0;-4.208376706E-1;-9.556035995E0;2.064108610E0
3.461198909E0;-3.466601670E-1;-9.704391479E0;2.315355062E0
3.463647503E0;-1.983051747E-1;-9.828818321E0;2.494816780E0
3.466096773E0;-3.529413417E-2;-9.931709290E0;2.552543640E0
3.468545315E0;1.154536903E-1;-1.003489971E1;2.645863533E0
3.470992971E0;2.494517565E-1;-1.014257717E1;2.679363251E0
3.473441565E0;3.619144261E-1;-1.023111153E1;2.770290375E0
3.475890888E0;4.746761918E-1;-1.028375340E1;2.791825771E0
3.478339378E0;5.919244885E-1;-1.036271667E1;2.753540754E0
3.480787034E0;6.708876491E-1;-1.037707329E1;2.720041037E0
3.483235628E0;7.474579811E-1;-1.041057301E1;2.643470764E0
3.485684950E0;7.977072597E-1;-1.043928719E1;2.487638235E0
3.488133440E0;8.527421951E-1;-1.043450165E1;2.353640079E0
3.490581148E0;7.139584422E-1;-1.047039413E1;2.257927179E0
3.493029690E0;6.972087026E-1;-1.045364380E1;2.025823355E0
3.495479013E0;7.307082415E-1;-1.038185883E1;1.769492388E0
3.497927555E0;7.043871880E-1;-1.034836006E1;1.537388563E0
3.500375211E0;5.991029739E-1;-1.033878803E1;1.300199986E0
3.502823753E0;5.177469850E-1;-1.030050373E1;1.048953652E0
3.505273075E0;3.906283081E-1;-1.027896786E1;8.117650747E-1
3.507721617E0;2.159522474E-1;-1.020957565E1;5.078766346E-1
3.510169273E0;4.606183618E-2;-1.016411209E1;3.403790295E-1
3.512617867E0;-1.214357466E-1;-1.006122112E1;1.701895148E-1
3.515067138E0;-2.509472668E-1;-1.002772141E1;4.815555736E-2
3.517515680E0;-3.849453330E-1;-1.001097202E1;-5.234299600E-2
3.519963336E0;-5.356931686E-1;-9.974780083E0;-1.576271951E-1
3.522411930E0;-6.577271223E-1;-9.910174370E0;-2.437688112E-1
3.524861253E0;-7.920243144E-1;-9.850353241E0;-3.254238665E-1
3.527309742E0;-8.853443861E-1;-9.804889679E0;-3.732803464E-1
3.529757398E0;-1.031306505E0;-9.768997192E0;-4.283152521E-1
3.532205992E0;-1.155733347E0;-9.723533630E0;-4.235295951E-1
3.534655315E0;-1.275673628E0;-9.666106224E0;-3.637090325E-1
3.537103805E0;-1.337886930E0;-9.644570351E0;-2.847459018E-1
3.539551513E0;-1.407278776E0;-9.601499557E0;-2.389831543E-1
3.542000055E0;-1.328315616E0;-9.558428764E0;-1.743769497E-1
3.544449378E0;-1.455135226E0;-9.608678818E0;-4.486542661E-3
3.546897867E0;-1.452742457E0;-9.601499557E0;1.199402362E-1
3.549345575E0;-1.450349569E0;-9.563215256E0;3.068794906E-1
3.551794117E0;-1.438385487E0;-9.536893845E0;5.413761139E-1
3.554243440E0;-1.445564032E0;-9.520144463E0;6.634100676E-1
3.556691982E0;-1.333101273E0;-9.477072716E0;7.256234884E-1
3.559139638E0;-1.143769264E0;-9.409774780E0;7.328019142E-1
3.561588180E0;-9.906286001E-1;-9.306883812E0;6.681957245E-1
3.564037503E0;-8.542376757E-1;-9.259027481E0;6.394818425E-1
3.566486044E0;-7.345965505E-1;-9.201599121E0;5.964110494E-1
3.568933700E0;-5.883352757E-1;-9.079565048E0;6.634100676E-1
3.571382294E0;-4.495515525E-1;-9.036494255E0;7.519445419E-1
3.573831617E0;-3.394817114E-1;-8.998209953E0;8.356932998E-1
3.576280107E0;-1.887338907E-1;-8.933603287E0;9.460622668E-1
3.578727763E0;1.256231871E-2;-8.823234558E0;1.060917735E0
3.581176357E0;1.728814393E-1;-8.782556534E0;1.087238789E0
3.583625680E0;3.403790295E-1;-8.722735405E0;1.077667475E0
3.586074169E0;4.674977362E-1;-8.655736923E0;1.027418256E0
3.588521878E0;5.727819204E-1;-8.648558617E0;9.795617461E-1
3.590970419E0;7.139584422E-1;-8.638986588E0;9.532406926E-1
3.593419742E0;8.455637097E-1;-8.593523026E0;7.471588850E-1
3.595868284E0;9.870393276E-1;-8.516953468E0;6.131607890E-1
3.598315940E0;1.123430252E0;-8.457132339E0;5.198407173E-1
3.600764482E0;1.223928809E0;-8.433204651E0;4.887340367E-1
3.603213805E0;1.281356573E0;-8.437990189E0;4.743770957E-1
3.605662346E0;1.374676585E0;-8.406883240E0;4.408775866E-1
3.608110003E0;1.427318692E0;-8.375776291E0;4.265206456E-1
3.610558596E0;1.465603828E0;-8.349455833E0;4.528416991E-1
3.613007867E0;1.592722535E0;-8.306085587E0;3.188436031E-1
3.615456409E0;1.619043589E0;-8.260622025E0;2.419741899E-1
3.617904065E0;1.631007791E0;-8.205587387E0;1.677966863E-1
3.620352659E0;1.638186216E0;-8.186444283E0;1.199402362E-1
3.622801982E0;1.633400559E0;-8.203194618E0;4.576273263E-2
3.625250471E0;1.631007791E0;-8.231907845E0;-1.884347759E-2
3.627698128E0;1.619043589E0;-8.219944000E0;-3.559323773E-2
3.630146721E0;1.623829246E0;-8.251050949E0;-1.743769497E-1
3.632596044E0;1.616650820E0;-8.306085587E0;-2.799602449E-1
3.635044534E0;1.604686737E0;-8.392526627E0;-4.019941986E-1
3.637492242E0;1.566401482E0;-8.483453751E0;-4.498506486E-1
3.639940784E0;1.540080428E0;-8.574380875E0;-5.527420044E-1
3.642390107E0;1.506281853E0;-8.689236641E0;-5.694918036E-1
3.644838648E0;1.501496196E0;-8.816056252E0;-5.814558864E-1
3.647286305E0;1.515853167E0;-8.979066849E0;-6.699903607E-1
3.649734846E0;1.511067510E0;-9.060422897E0;-6.939185858E-1
3.652184169E0;1.479960799E0;-9.139386177E0;-6.963114142E-1
3.654632711E0;1.441675663E0;-9.110671997E0;-6.628118753E-1
3.657080367E0;1.475175142E0;-9.117850304E0;-6.843472719E-1
3.659528961E0;1.441675663E0;-9.096315384E0;-7.130611539E-1
3.661978232E0;1.479960799E0;-9.048459053E0;-7.322037220E-1
3.664426773E0;1.479960799E0;-8.988637924E0;-7.513462901E-1
3.666874430E0;1.422533035E0;-8.979066849E0;-7.154539824E-1
3.669323023E0;1.424925923E0;-8.955139160E0;-8.087740541E-1
3.671772346E0;1.477568030E0;-8.888139725E0;-8.665009141E-1
3.674220836E0;1.465603828E0;-8.830412865E0;-9.287142754E-1
3.676668492E0;1.436890006E0;-8.780163765E0;-9.119645357E-1
3.679117086E0;1.432104349E0;-8.794520378E0;-8.976075649E-1
3.681566409E0;1.446461320E0;-8.801698685E0;-1.010070205E0
3.684014898E0;1.542473316E0;-8.830412865E0;-1.120140076E0
3.686462607E0;1.609472275E0;-8.835198402E0;-1.091426253E0
3.688911148E0;1.671685696E0;-9.000602722E0;-1.096211910E0
3.691360471E0;1.762612939E0;-9.177671432E0;-1.060319543E0
3.693809013E0;1.865504384E0;-9.397810936E0;-1.048355460E0
3.696256669E0;2.023430586E0;-9.699605942E0;-1.148854017E0
3.698705263E0;2.196012974E0;-9.946066856E0;-1.141675472E0
3.701154534E0;2.394617319E0;-1.008275604E1;-9.598209858E-1
3.703603075E0;2.631506681E0;-1.029332447E1;-7.776673436E-1
3.706050732E0;2.856731176E0;-1.043450165E1;-5.288137794E-1
3.708499325E0;3.086441994E0;-1.046560764E1;-1.911267042E-1
3.710948648E0;3.333201885E0;-1.045364380E1;4.097708687E-2
3.713397138E0;3.601198196E0;-1.037707329E1;2.419741899E-1
3.715844794E0;3.792922974E0;-1.027657509E1;4.145565331E-1
3.718293388E0;3.960420609E0;-1.012343407E1;5.030909777E-1
3.720742711E0;4.094418526E0;-9.991530418E0;5.533402562E-1
3.723191200E0;4.216452599E0;-9.852746010E0;5.341976285E-1
3.725638857E0;4.288237095E0;-9.749855042E0;4.959124923E-1
3.728087450E0;4.403391838E0;-9.721140862E0;4.001995921E-1
3.730536773E0;4.434498787E0;-9.754640579E0;2.419741899E-1
3.732985263E0;4.479962349E0;-9.826425552E0;1.055833027E-1
3.735432971E0;4.489533424E0;-9.979565620E0;-6.879365072E-3
3.737881513E0;4.499104977E0;-1.015932655E1;-5.473581702E-2
3.740330836E0;4.515854359E0;-1.037707329E1;-1.336989701E-1
3.742779378E0;4.542175770E0;-1.060469055E1;-2.246262282E-1
3.745227034E0;4.515854359E0;-1.082961655E1;-2.919243574E-1
3.747675628E0;4.513461590E0;-1.105454159E1;-3.421736360E-1
3.750124898E0;4.511068821E0;-1.123190975E1;-4.283152521E-1
3.752573440E0;4.518247128E0;-1.138265705E1;-5.024927258E-1
3.755021096E0;4.513461590E0;-1.150229836E1;-5.886343718E-1
3.757469690E0;4.520640373E0;-1.160040379E1;-6.747759581E-1
3.759919013E0;4.534996986E0;-1.173470116E1;-7.561319470E-1
3.762367503E0;4.489533424E0;-1.184477139E1;-8.425726891E-1
3.764815159E0;4.441677094E0;-1.195244789E1;-9.311071038E-1
3.767263753E0;4.391427994E0;-1.210798168E1;-9.789635539E-1
3.769713075E0;4.312165737E0;-1.220847988E1;-1.012463093E0
3.772161565E0;4.245166302E0;-1.234277725E1;-1.017248750E0
3.774609273E0;4.159024715E0;-1.246481133E1;-1.108175993E0
3.777057815E0;4.065704823E0;-1.259641647E1;-1.175175071E0
3.779507138E0;3.993920088E0;-1.273519993E1;-1.246959686E0
3.781955680E0;3.898207188E0;-1.285274792E1;-1.390828133E0
3.784403336E0;3.835993767E0;-1.289581871E1;-1.551147223E0
3.786851878E0;3.708875179E0;-1.287189007E1;-1.709073544E0
3.789301200E0;3.541377544E0;-1.278784275E1;-1.919641972E0
3.791749742E0;3.352344513E0;-1.263230896E1;-2.082653046E0
3.794197398E0;3.139084101E0;-1.245524025E1;-2.298007011E0
3.796645992E0;2.938086987E0;-1.227817154E1;-2.496611357E0
3.799095315E0;2.741875648E0;-1.214148140E1;-2.681157827E0
3.801543805E0;2.552543640E0;-1.203619671E1;-2.855833769E0
3.803991461E0;2.385046005E0;-1.197398376E1;-3.054438114E0
3.806440055E0;2.241476536E0;-1.188784218E1;-3.236591816E0
3.808889378E0;2.138585329E0;-1.186391354E1;-3.375375509E0
3.811337867E0;2.054537296E0;-1.180170059E1;-3.509373426E0
3.813785575E0;1.997109652E0;-1.174666500E1;-3.569194078E0
3.816234117E0;1.954038739E0;-1.163390350E1;-3.593122244E0
3.818683440E0;1.913360834E0;-1.154776192E1;-3.535694599E0
3.821131982E0;1.901396751E0;-1.142812061E1;-3.504587889E0
3.823579638E0;1.889432549E0;-1.133240795E1;-3.399303675E0
3.826028232E0;1.860718727E0;-1.126301575E1;-3.246163130E0
3.828477503E0;1.832004786E0;-1.118883896E1;-3.073879719E0
3.830926044E0;1.820040703E0;-1.112662506E1;-2.879761934E0
3.833373700E0;1.776969910E0;-1.114576817E1;-2.659622431E0
3.835822294E0;1.781755567E0;-1.118883896E1;-2.386541367E0
3.838271617E0;1.707578063E0;-1.129412270E1;-2.046760559E0
3.840720107E0;1.642971873E0;-1.148554897E1;-1.668395638E0
3.843167763E0;1.534995675E0;-1.166261768E1;-1.194317579E0
3.845616357E0;1.400997639E0;-1.188544941E1;-6.723831892E-1
3.848065680E0;1.238285661E0;-1.206012535E1;-2.679961324E-1
3.850514169E0;1.168893814E0;-1.226142120E1;9.601201117E-2
3.852961878E0;1.080359459E0;-1.248873997E1;3.427718580E-1
3.855410419E0;9.675976634E-1;-1.274955750E1;4.935196638E-1
3.857859742E0;8.096713424E-1;-1.311117268E1;5.198407173E-1
3.860308284E0;5.679962635E-1;-1.355175114E1;4.336991012E-1
3.862755940E0;2.542374134E-1;-1.409043503E1;2.563311160E-1
3.865204482E0;-1.286142170E-1;-1.471047497E1;5.533402413E-2
3.867653805E0;-6.026921868E-1;-1.540947914E1;-1.528415531E-1
3.870102346E0;-1.232303619E0;-1.617817307E1;-3.110669553E-1
3.872550003E0;-1.910070658E0;-1.693699646E1;-4.354937077E-1
3.874998596E0;-2.585145712E0;-1.758814430E1;-5.192425251E-1
3.877447867E0;-3.229114056E0;-1.813639832E1;-5.264210105E-1
3.879896409E0;-3.784548044E0;-1.849562263E1;-4.498506486E-1
3.882344065E0;-4.172484398E0;-1.864158440E1;-2.919243574E-1
3.884792659E0;-4.337589264E0;-1.864636993E1;-1.576271951E-1
3.887241982E0;-4.361517429E0;-1.850519371E1;-6.879365072E-3
3.889690471E0;-4.234697819E0;-1.827757645E1;1.342971772E-1
3.892138180E0;-4.033401489E0;-1.796172333E1;2.180459648E-1
3.894586721E0;-3.782155275E0;-1.764796448E1;2.371885478E-1
3.897036044E0;-3.489931822E0;-1.729621887E1;2.419741899E-1
3.899484586E0;-3.245863914E0;-1.695613861E1;2.922234535E-1
3.901932242E0;-3.011367321E0;-1.663759422E1;2.706880569E-1
3.904380784E0;-2.723929405E0;-1.632892036E1;2.347957194E-1
3.906830107E0;-2.400898457E0;-1.599601936E1;1.821536273E-1
3.909278648E0;-2.008176327E0;-1.565863132E1;7.686942816E-2
3.911726305E0;-1.572383523E0;-1.529701614E1;-2.602194622E-2
3.914174898E0;-1.141376376E0;-1.496172142E1;-1.097707376E-1
3.916624169E0;-6.960122585E-1;-1.458365536E1;-2.871387303E-1
3.919072711E0;-1.935195327E-1;-1.421486187E1;-4.426721931E-1
3.921520367E0;3.164508045E-1;-1.388674641E1;-6.317051649E-1
3.923968961E0;8.623134494E-1;-1.361874962E1;-7.872386575E-1
3.926418284E0;1.377069473E0;-1.337946796E1;-8.880363107E-1
3.928866773E0;1.709970832E0;-1.319013596E1;-9.358927608E-1
3.931314482E0;1.899003863E0;-1.307049465E1;-1.010070205E0
3.933763023E0;1.997109652E0;-1.295563889E1;-1.043569803E0
3.936212346E0;2.136192322E0;-1.292931843E1;-1.055533886E0
3.938660836E0;2.172084808E0;-1.292931843E1;-1.115354419E0
3.941108544E0;2.200798512E0;-1.288624763E1;-1.134497046E0
3.943557086E0;2.210369825E0;-1.283599758E1;-1.057926655E0
3.946006409E0;2.040180445E0;-1.285274792E1;-7.322037220E-1
3.948454950E0;1.934896231E0;-1.284796238E1;-4.235295951E-1
3.950902607E0;1.853540182E0;-1.278066349E1;-3.661018610E-1
3.953351200E0;1.872682810E0;-1.267298698E1;-3.732803464E-1
3.955800523E0;1.899003863E0;-1.250788212E1;-3.756731451E-1
3.958249013E0;1.832004786E0;-1.237149143E1;-4.378865361E-1
3.960696669E0;1.762612939E0;-1.215344524E1;-5.168496966E-1
3.963145263E0;1.662114382E0;-1.200030422E1;-5.694918036E-1
3.965594586E0;1.564008713E0;-1.186630630E1;-6.101697683E-1
3.968043075E0;1.503889084E0;-1.172513008E1;-6.484549642E-1
3.970490784E0;1.415354609E0;-1.159801102E1;-6.652047038E-1
3.972939325E0;1.322034478E0;-1.151904774E1;-6.197410822E-1
3.975388648E0;1.202393413E0;-1.144008541E1;-5.527420044E-1
3.977837190E0;9.388837814E-1;-1.145204926E1;-5.072783828E-1
3.980284846E0;7.713862062E-1;-1.141854954E1;-4.450650215E-1
3.982733388E0;5.703890920E-1;-1.139222908E1;-3.732803464E-1
3.985182711E0;3.260220885E-1;-1.135633659E1;-2.656033039E-1
3.987631253E0;6.999006122E-2;-1.132044411E1;-2.126621157E-1
3.990078909E0;-1.863410622E-1;-1.127258778E1;-1.241276711E-1
3.992527503E0;-4.328017831E-1;-1.127019501E1;-3.798605874E-2
3.994976773E0;-6.577271223E-1;-1.123908806E1;2.183450572E-2
3.997425315E0;-8.685946465E-1;-1.120080280E1;7.686942816E-2
3.999872971E0;-1.069591761E0;-1.115773201E1;1.558325738E-1
4.002321565E0;-1.196411371E0;-1.104018497E1;2.132603228E-1
4.004770888E0;-1.323530078E0;-1.094686413E1;3.068794906E-1
4.007219378E0;-1.424028635E0;-1.080329514E1;3.930211067E-1
4.009667086E0;-1.514955878E0;-1.065254688E1;4.528416991E-1
4.012115628E0;-1.598704576E0;-1.044167995E1;5.006981492E-1
4.014564950E0;-1.660917997E0;-1.023589706E1;5.605186820E-1
4.017013492E0;-1.672882080E0;-1.002772141E1;5.461617708E-1
4.019461148E0;-1.586740494E0;-9.752247810E0;5.102694035E-1
4.021909690E0;-1.510170221E0;-9.469894409E0;4.983053207E-1
4.024359013E0;-1.443171144E0;-9.201599121E0;4.935196638E-1
4.026807555E0;-1.364207983E0;-8.902496338E0;4.360919297E-1
4.029255211E0;-1.335494161E0;-8.682058334E0;3.595215976E-1
4.031703805E0;-1.246660590E0;-8.399704933E0;2.778665423E-1
4.034153128E0;-1.155733347E0;-8.107481003E0;1.606182158E-1
4.036601617E0;-1.083948612E0;-7.870592117E0;6.011966988E-2
4.039049273E0;-1.057627559E0;-7.645367622E0;-1.645065658E-2
4.041497867E0;-1.004985452E0;-7.398906708E0;-7.387840003E-2
4.043947190E0;-9.212366939E-1;-7.171289444E0;-1.265204996E-1
4.046395680E0;-9.188438654E-1;-6.987041950E0;-1.504487246E-1
4.048843388E0;-8.877372146E-1;-6.769295216E0;-1.695913076E-1
4.051291930E0;-8.877372146E-1;-6.582355976E0;-1.600200087E-1
4.053741253E0;-8.709874153E-1;-6.398108482E0;-1.169492081E-1
4.056189794E0;-8.566305041E-1;-6.223432541E0;-1.001994461E-1
4.058637450E0;-8.374879360E-1;-6.069993019E0;-5.952146277E-2
4.061086044E0;-8.350951076E-1;-5.955137253E0;-4.486542661E-3
4.063535315E0;-8.949156404E-1;-5.857031822E0;6.251249462E-2
4.065983857E0;-9.044869542E-1;-5.761318684E0;1.199402362E-1
4.068431513E0;-8.781659007E-1;-5.653641701E0;1.677966863E-1
4.070880107E0;-8.877372146E-1;-5.581857204E0;2.276172489E-1
4.073329430E0;-8.925228715E-1;-5.526822090E0;3.140579760E-1
4.075777919E0;-9.212366939E-1;-5.459524155E0;4.480560422E-1
4.078225575E0;-9.906286001E-1;-5.421238899E0;5.940182209E-1
4.080674169E0;-1.033699393E0;-5.411667347E0;7.615157962E-1
4.083123492E0;-1.093519926E0;-5.373382568E0;9.005986452E-1
4.085571982E0;-1.134197950E0;-5.351847172E0;1.060917735E0
4.088019690E0;-1.201196909E0;-5.320740223E0;1.178166032E0
4.090468232E0;-1.237089276E0;-5.315954685E0;1.343270779E0
4.092917555E0;-1.246660590E0;-5.280062199E0;1.441675663E0
4.095366096E0;-1.249053478E0;-5.248955727E0;1.537388563E0
4.097813753E0;-1.275673628E0;-5.225027561E0;1.604387641E0
4.100262346E0;-1.294816136E0;-5.196313381E0;1.678565025E0
4.102711617E0;-1.323530078E0;-5.174777985E0;1.781456470E0
4.105160159E0;-1.400100350E0;-5.155635357E0;1.802991867E0
4.107607815E0;-1.416850090E0;-5.102993488E0;1.812563181E0
4.110056409E0;-1.426421404E0;-5.086243629E0;1.838884234E0
4.112505732E0;-1.445564032E0;-5.035994530E0;1.819741607E0
4.114954221E0;-1.464706540E0;-5.028815746E0;1.793420553E0
4.117401930E0;-1.495813251E0;-4.985744953E0;1.726421595E0
4.119850471E0;-1.524527073E0;-4.971388340E0;1.673779488E0
4.122299794E0;-1.529312730E0;-4.918447018E0;1.587637782E0
4.124748336E0;-1.565205097E0;-4.865804672E0;1.489532113E0
4.127195992E0;-1.550848126E0;-4.782055855E0;1.391127229E0
4.129644586E0;-1.579562068E0;-4.748556614E0;1.285843015E0
4.132093857E0;-1.605883121E0;-4.717449665E0;1.261914849E0
4.134542398E0;-1.663310885E0;-4.648057938E0;1.209272742E0
4.136990055E0;-1.735095501E0;-4.614558697E0;1.108774185E0
4.139438648E0;-1.749452472E0;-4.564309120E0;1.027418256E0
4.141887971E0;-1.787737608E0;-4.494917393E0;9.604191780E-1
4.144336461E0;-1.833500385E0;-4.449453831E0;9.221340418E-1
4.146784117E0;-1.888535261E0;-4.384548187E0;8.958129883E-1
4.149232711E0;-1.962712765E0;-4.312763691E0;9.125627279E-1
4.151682034E0;-2.008176327E0;-4.240979195E0;8.862416744E-1
4.154130575E0;-2.041675806E0;-4.169194221E0;8.742775917E-1
4.156578232E0;-2.079961061E0;-4.083052635E0;8.428717852E-1
4.159026773E0;-2.096710920E0;-4.018446445E0;8.045865893E-1
4.161476096E0;-2.103889227E0;-3.951447487E0;7.734799385E-1
4.163924638E0;-2.113460541E0;-3.877269983E0;7.136593461E-1
4.166372294E0;-2.094317913E0;-3.824328899E0;6.466603279E-1
4.168820888E0;-2.072782516E0;-3.774079561E0;6.370890141E-1
4.171270159E0;-2.017747641E0;-3.723830223E0;5.700899959E-1
4.173718700E0;-1.912463546E0;-3.659224033E0;5.054838061E-1
4.176166357E0;-1.821237087E0;-3.616153240E0;4.025924206E-1
4.178614950E0;-1.677667737E0;-3.611367464E0;3.188436031E-1
4.181064273E0;-1.514955878E0;-3.577867985E0;2.467598319E-1
4.183512763E0;-1.383350611E0;-3.587439299E0;1.247258782E-1
4.185960471E0;-1.172483087E0;-3.565903902E0;-1.166501082E-2
4.188409013E0;-9.786644578E-1;-3.635295868E0;-1.695913076E-1
4.190858336E0;-7.752745152E-1;-3.707080364E0;-3.206382394E-1
4.193306878E0;-5.787639618E-1;-3.843770504E0;-5.766702294E-1
4.195754534E0;-3.993022740E-1;-4.059124470E0;-9.311071038E-1
4.198203075E0;-1.743769497E-1;-4.379762650E0;-1.292423368E0
4.200652398E0;2.991028363E-3;-4.746163845E0;-1.759322882E0
4.203100940E0;2.159522474E-1;-5.181956768E0;-2.242972136E0
4.205548596E0;3.762713671E-1;-5.715855122E0;-2.681157827E0
4.207997190E0;5.225326419E-1;-6.276074886E0;-3.131307602E0
4.210446513E0;6.828517914E-1;-6.855436802E0;-3.581158161E0
4.212895003E0;8.718847632E-1;-7.453941822E0;-4.079164505E0
4.215342659E0;1.128215909E0;-8.102695465E0;-4.696811676E0
4.217791253E0;1.434497118E0;-8.782556534E0;-5.369792938E0
4.220240575E0;1.786541224E0;-9.515357971E0;-6.071189404E0
4.222689065E0;2.219941139E0;-1.025503922E1;-6.796513557E0
4.225136773E0;2.705983400E0;-1.106889820E1;-7.565207958E0
4.227585315E0;3.242274761E0;-1.196680546E1;-8.278568268E0
4.230034638E0;3.816851139E0;-1.288624763E1;-8.903393745E0
4.232483180E0;4.214059830E0;-1.394925880E1;-9.339186668E0
4.234930836E0;4.826921463E0;-1.500479221E1;-9.662218094E0
4.237379430E0;5.401497841E0;-1.614916039E1;-9.717252731E0
4.239828700E0;6.031408787E0;-1.726720619E1;-9.422935486E0
4.242277242E0;6.550651073E0;-1.854108620E1;-8.922536850E0
4.244724898E0;7.194918633E0;-1.969741631E1;-8.388637543E0
4.247173492E0;7.944170952E0;-2.068385887E1;-7.857132435E0
4.249622815E0;8.528319359E0;-2.146660995E1;-7.488338470E0
4.252071305E0;9.052646637E0;-2.195265198E1;-7.473981380E0
4.254519013E0;9.512367249E0;-2.201725769E1;-7.806882858E0
4.256967555E0;1.000798035E1;-2.166760635E1;-8.333602905E0
4.259416878E0;1.039083195E1;-2.098296165E1;-8.989535332E0
4.261865419E0;1.067587757E1;-2.011885262E1;-9.674181938E0
4.264313075E0;1.081705379E1;-1.916830444E1;-1.028225803E1
4.266761617E0;1.079312611E1;-1.810289955E1;-1.073719311E1
4.269210940E0;1.071177006E1;-1.693460464E1;-1.092413235E1
4.271659482E0;1.066152000E1;-1.576870155E1;-1.084726334E1
4.274107138E0;1.040997505E1;-1.471765423E1;-1.051466084E1
4.276555732E0;9.809077263E0;-1.374078369E1;-9.997511864E0
4.279005055E0;8.995218277E0;-1.282164097E1;-9.583254814E0
4.281453544E0;8.020741463E0;-1.196680546E1;-9.221639633E0
4.283901253E0;6.962515831E0;-1.112662506E1;-8.912964821E0
4.286349794E0;5.959324837E0;-1.034357452E1;-8.611170769E0
4.288799117E0;5.016253471E0;-9.646963120E0;-8.225926399E0
4.291247659E0;4.118346691E0;-9.010173798E0;-7.780561924E0
4.293695315E0;3.244667530E0;-8.485846519E0;-7.287341595E0
4.296143857E0;2.373081923E0;-7.966304779E0;-6.798906326E0
4.298593180E0;1.534995675E0;-7.520940781E0;-6.178866386E0
4.301041721E0;7.283154130E-1;-7.159325123E0;-5.855535984E0
4.303489378E0;-1.214357466E-1;-6.728617191E0;-5.144568920E0
4.305937971E0;-9.523434043E-1;-6.345466614E0;-4.333102703E0
4.308387294E0;-1.802094579E0;-6.024528980E0;-3.430410385E0
4.310835784E0;-2.642573595E0;-5.835496426E0;-2.472683191E0
4.313283440E0;-3.461217880E0;-5.734997749E0;-1.398006678E0
4.315732034E0;-4.258625984E0;-5.794818401E0;-2.967100143E-1
4.318181357E0;-4.957629204E0;-5.962316036E0;8.117650747E-1
4.320629898E0;-5.515456200E0;-6.233004093E0;1.917847395E0
4.323077555E0;-5.932106495E0;-6.623034000E0;2.921038151E0
4.325526096E0;-6.154638767E0;-7.034898758E0;3.785445452E0
4.327975419E0;-6.025426388E0;-7.583154202E0;4.424628258E0
4.330423961E0;-5.577669621E0;-8.255836487E0;4.714159489E0
4.332871617E0;-4.854738235E0;-8.943174362E0;4.822135925E0
4.335320211E0;-3.952045679E0;-9.563215256E0;4.901099205E0
4.337769482E0;-2.989831924E0;-1.014257717E1;5.054239750E0
4.340218023E0;-2.044068813E0;-1.064776134E1;5.221737385E0
4.342665680E0;-1.182054400E0;-1.112662506E1;5.399105072E0
4.345114273E0;-4.974080026E-1;-1.154058361E1;5.583352566E0
4.347563596E0;1.465603858E-1;-1.186391354E1;5.640780449E0
4.350012086E0;7.354938388E-1;-1.211037445E1;5.571388245E0
4.352459794E0;1.231107235E0;-1.234756279E1;5.267200947E0
4.354908336E0;1.616650820E0;-1.256052399E1;4.685445786E0
4.357357659E0;1.949253201E0;-1.280219936E1;3.814159393E0
4.359806200E0;2.172084808E0;-1.310638714E1;2.743969440E0
4.362253857E0;2.241476536E0;-1.349671650E1;1.518245935E0
4.364702450E0;2.282154560E0;-1.400190067E1;9.361918271E-2
4.367151721E0;2.260619164E0;-1.463629818E1;-1.398006678E0
4.369600263E0;2.215155602E0;-1.541905022E1;-3.013760090E0
4.372047919E0;2.174477577E0;-1.630259895E1;-4.567599297E0
4.374496513E0;2.193620205E0;-1.726242065E1;-6.018547058E0
4.376945836E0;2.277369022E0;-1.821775436E1;-7.172485828E0
4.379394325E0;2.487937450E0;-1.904387665E1;-7.885846138E0
4.381842034E0;2.751446962E0;-1.969981003E1;-8.151748657E0
4.384290575E0;3.163012505E0;-2.000130463E1;-7.821239948E0
4.386739898E0;3.658625841E0;-1.995344925E1;-6.906583309E0
4.389188440E0;4.209274292E0;-1.951765633E1;-5.503791332E0
4.391636096E0;4.728815556E0;-1.867747688E1;-3.727419376E0
4.394084638E0;5.078466892E0;-1.750200272E1;-1.687538147E0
4.396533961E0;5.109573841E0;-1.614676666E1;2.922234535E-1
4.398982503E0;4.783850670E0;-1.472961807E1;2.037787676E0
4.401430159E0;4.048954964E0;-1.331217003E1;3.253939629E0
4.403878753E0;3.012264490E0;-1.186630630E1;4.051048756E0
4.406328075E0;1.853540182E0;-1.037228775E1;4.403092861E0
4.408776565E0;7.139584422E-1;-8.871090889E0;4.297808647E0
4.411224273E0;-3.466601670E-1;-7.410871029E0;3.802195072E0
4.413672815E0;-1.373779297E0;-6.067600250E0;3.023929596E0
4.416122138E0;-2.295315027E0;-4.973781109E0;1.960918188E0
4.418570680E0;-3.164507866E0;-4.130908966E0;6.323033571E-1
4.421018336E0;-3.990330935E0;-3.520440340E0;-8.234301209E-1
4.423466878E0;-4.814060211E0;-3.173182011E0;-2.185544491E0
4.425916200E0;-5.560919762E0;-3.015255690E0;-3.502195120E0
4.428364742E0;-6.307779789E0;-3.051147938E0;-4.445565224E0
4.430812398E0;-7.007081985E0;-3.211467028E0;-4.890929699E0
4.433260992E0;-7.727620602E0;-3.448655605E0;-4.572384834E0
4.435710315E0;-8.381160736E0;-3.654438496E0;-3.475873947E0
4.438158805E0;-8.826524734E0;-3.733401537E0;-1.907677889E0
4.440606513E0;-8.984451294E0;-3.592225075E0;-1.265204996E-1
4.443055055E0;-8.757132530E0;-3.305086374E0;1.738385677E0
4.445504378E0;-8.163414001E0;-2.938685417E0;3.474079370E0
4.447952867E0;-7.258328438E0;-2.605783939E0;4.860421181E0
4.450400575E0;-6.149853230E0;-2.419143677E0;5.710172176E0
4.452849117E0;-4.943272591E0;-2.490928411E0;6.052644730E0
4.455298440E0;-3.763012648E0;-2.883650303E0;5.928217888E0
4.457746982E0;-2.688037157E0;-3.675973892E0;5.384748459E0
4.460194638E0;-1.773380637E0;-4.777270317E0;4.680660248E0
4.462643232E0;-1.036092162E0;-6.139683723E0;4.048655987E0
4.465092555E0;-4.351946115E-1;-7.614260674E0;3.574577808E0
4.467541044E0;3.888336942E-2;-9.067601204E0;3.227618694E0
4.469988700E0;3.786641955E-1;-1.046082211E1;3.019144058E0
4.472437294E0;6.278168559E-1;-1.175384426E1;2.808575630E0
4.474886617E0;7.857431173E-1;-1.296520996E1;2.569293261E0
4.477335107E0;8.838488460E-1;-1.407129288E1;2.255534410E0
4.479782815E0;9.269196987E-1;-1.510319710E1;1.948953986E0
4.482231357E0;9.628120065E-1;-1.603669739E1;1.621137381E0
4.484680680E0;1.063609719E0;-1.686521149E1;1.331306696E0
4.487129221E0;1.223928809E0;-1.745653915E1;1.048953652E0
4.489576878E0;1.527817249E0;-1.791625977E1;7.686942816E-1
4.492025471E0;1.975574136E0;-1.822732735E1;5.629115105E-1
4.494474794E0;2.552543640E0;-1.830389595E1;3.882354796E-1
4.496923284E0;3.208476067E0;-1.821536255E1;3.332005441E-1
4.499370940E0;3.986741543E0;-1.789233208E1;4.097708762E-1
4.501819534E0;4.764708042E0;-1.735603905E1;5.485545993E-1
4.504268857E0;5.442175865E0;-1.664716530E1;6.945167780E-1
4.506717346E0;5.906682491E0;-1.578305817E1;8.718847632E-1
4.509165055E0;6.072086334E0;-1.493779373E1;1.056132078E0
4.511613596E0;5.959324837E0;-1.406411457E1;1.185344458E0
4.514062919E0;5.691328526E0;-1.325952721E1;1.209272742E0
4.516511461E0;5.379962444E0;-1.251266766E1;1.156630635E0
4.518959117E0;4.992325306E0;-1.184716415E1;1.087238789E0
4.521407711E0;4.506283283E0;-1.124148083E1;1.036989570E0
4.523857034E0;3.996312857E0;-1.074586773E1;1.072881818E0
4.526305523E0;3.440878868E0;-1.034357452E1;1.092024446E0
4.528753180E0;2.856731176E0;-1.004447079E1;1.206879973E0
4.531201773E0;2.294118643E0;-9.754640579E0;1.343270779E0
4.533651096E0;1.757827282E0;-9.532108307E0;1.491924882E0
4.536099586E0;1.221535921E0;-9.321240425E0;1.597209096E0
4.538547294E0;8.216354847E-1;-9.187242508E0;1.692921996E0
4.540995836E0;4.674977362E-1;-9.050851822E0;1.731207132E0
4.543445159E0;1.824527234E-1;-8.952746391E0;1.774278045E0
4.545893700E0;-3.529413417E-2;-8.866305351E0;1.747956991E0
4.548341357E0;-2.413759828E-1;-8.842376709E0;1.671386600E0
4.550789950E0;-3.849453330E-1;-8.808876991E0;1.566102386E0
4.553239273E0;-4.639084935E-1;-8.792127609E0;1.429711580E0
4.555687763E0;-5.476573110E-1;-8.804091454E0;1.343270779E0
4.558135419E0;-5.787639618E-1;-8.796913147E0;1.269093275E0
4.560584013E0;-6.290132403E-1;-8.851948738E0;1.233201027E0
4.563033336E0;-6.768696904E-1;-8.938388824E0;1.185344458E0
4.565481878E0;-6.984050870E-1;-9.050851822E0;1.170987606E0
4.567929534E0;-7.055835724E-1;-9.134600639E0;1.166201949E0
4.570378075E0;-7.393822074E-1;-9.206384659E0;1.228415370E0
4.572827398E0;-7.896314859E-1;-9.302098274E0;1.319342613E0
4.575275940E0;-7.441678643E-1;-9.385847092E0;1.357627749E0
4.577723596E0;-6.720840335E-1;-9.474679947E0;1.343270779E0
4.580172190E0;-5.739783049E-1;-9.548857689E0;1.242772222E0
4.582621513E0;-4.519443810E-1;-9.599106789E0;1.123131156E0
4.585070003E0;-3.083750308E-1;-9.627820969E0;1.048953652E0
4.587517711E0;-1.624128371E-1;-9.630213737E0;9.532406926E-1
4.589966253E0;-3.050848842E-2;-9.649356842E0;8.309076428E-1
4.592415575E0;1.178465188E-1;-9.658927917E0;7.567301393E-1
4.594864117E0;2.494517565E-1;-9.627820969E0;7.112665176E-1
4.597311773E0;3.858426511E-1;-9.579964638E0;6.538388133E-1
4.599760367E0;5.321039557E-1;-9.558428764E0;5.605186820E-1
4.602209638E0;6.565307379E-1;-9.489037514E0;4.504488707E-1
4.604658180E0;7.450651526E-1;-9.419346809E0;3.475574851E-1
4.607105836E0;8.503493667E-1;-9.357132912E0;2.156531364E-1
4.609554430E0;9.173483849E-1;-9.259027481E0;1.414756328E-1
4.612003753E0;8.982058167E-1;-9.144171715E0;1.247258782E-1
4.614452242E0;8.623134494E-1;-9.038887978E0;1.199402362E-1
4.616899898E0;7.857431173E-1;-8.943174362E0;1.319043487E-1
4.619348492E0;7.546364665E-1;-8.801698685E0;3.619144112E-2
4.621797815E0;7.498508096E-1;-8.684451103E0;-1.645065658E-2
4.624246357E0;6.804589629E-1;-8.552845001E0;-1.121635586E-1
4.626694013E0;6.565307379E-1;-8.402097702E0;-1.743769497E-1
4.629142555E0;6.493522525E-1;-8.277371407E0;-2.485544533E-1
4.631591878E0;4.244269133E-1;-8.215158463E0;-9.780662507E-2
4.634040419E0;2.494517565E-1;-8.191229820E0;8.644071966E-2
4.636488075E0;1.250249892E-1;-8.188837051E0;2.587239444E-1
4.638936669E0;-3.529413417E-2;-8.239086151E0;4.839483798E-1
4.641385992E0;-1.863410622E-1;-8.310871124E0;6.514459848E-1
4.643834482E0;-2.270190418E-1;-8.402097702E0;6.849454641E-1
4.646282138E0;-1.719841212E-1;-8.476275444E0;6.873382926E-1
4.648730732E0;-1.671984792E-1;-8.605487823E0;5.581258535E-1
4.651180055E0;-2.341975123E-1;-8.732307434E0;5.078766346E-1
4.653628596E0;-2.294118702E-1;-8.825627327E0;4.815555513E-1
4.656076253E0;-2.868396044E-1;-8.907281876E0;5.629115105E-1
4.658524846E0;-2.413759828E-1;-9.031708717E0;7.064808607E-1
4.660974117E0;-1.863410622E-1;-9.125029564E0;8.524430394E-1
4.663422659E0;-5.443671346E-2;-9.187242508E0;1.041775107E0
4.665870315E0;5.084748194E-2;-9.232706070E0;1.218844056E0
4.668318909E0;2.422732860E-1;-9.349954605E0;1.276271820E0
4.670768232E0;4.049852192E-1;-9.361918449E0;1.233201027E0
4.673216721E0;6.086742878E-1;-9.357132912E0;1.173380375E0
4.675664430E0;7.689933777E-1;-9.345169067E0;1.125523925E0
4.678112971E0;9.580263495E-1;-9.393025398E0;9.269196987E-1
4.680562294E0;1.116251707E0;-9.404989243E0;6.849454641E-1
4.683010836E0;1.200000525E0;-9.404989243E0;4.863412082E-1
4.685458492E0;1.286142230E0;-9.306883812E0;3.355933726E-1
4.687907086E0;1.477568030E0;-9.282955170E0;1.677966863E-1
4.690356357E0;1.611865163E0;-9.263813019E0;-4.755735025E-2
4.692804898E0;1.698006749E0;-9.223134995E0;-2.703889608E-1
4.695252555E0;1.760220170E0;-9.184849739E0;-4.737788737E-1
4.697701148E0;1.853540182E0;-9.110671997E0;-6.675975323E-1
4.700150471E0;1.860718727E0;-9.098708153E0;-8.063812256E-1
4.702598961E0;1.882254124E0;-9.086744308E0;-9.239286184E-1
4.705046669E0;1.877468467E0;-9.117850304E0;-1.084247708E0
4.707495211E0;1.884646893E0;-9.081958771E0;-1.285244823E0
4.709944534E0;1.910967946E0;-9.043673515E0;-1.467398524E0
4.712393075E0;1.891825438E0;-8.991030693E0;-1.572682738E0
4.714840732E0;1.884646893E0;-8.983852386E0;-1.637288928E0
4.717289325E0;1.860718727E0;-8.988637924E0;-1.704287887E0
4.719738596E0;1.834397674E0;-8.921639442E0;-1.625324726E0
4.722187138E0;1.894218206E0;-8.921639442E0;-1.721037745E0
4.724634794E0;1.961217284E0;-8.904889107E0;-1.790429592E0
4.727083388E0;1.970788598E0;-8.873483658E0;-1.790429592E0
4.729532711E0;1.989931107E0;-8.895318031E0;-1.749751568E0
4.731981200E0;2.059323072E0;-8.888139725E0;-1.773679733E0
4.734428909E0;2.080858469E0;-8.888139725E0;-1.754537225E0
4.736877450E0;2.112264156E0;-8.888139725E0;-1.587039590E0
4.739326773E0;2.167299032E0;-8.959924698E0;-1.398006678E0
4.741775315E0;2.236690998E0;-9.060422897E0;-1.254138112E0
4.744222971E0;2.330011129E0;-9.108279228E0;-1.072283626E0
4.746671565E0;2.471187592E0;-9.132207870E0;-8.641080856E-1
4.749120836E0;2.638685226E0;-9.199206352E0;-7.585247755E-1
4.751569378E0;2.737090111E0;-9.280562401E0;-6.771687865E-1
4.754017034E0;2.890230656E0;-9.361918449E0;-6.508477330E-1
4.756465628E0;2.966800928E0;-9.436096191E0;-6.508477330E-1
4.758914950E0;3.079263687E0;-9.534501076E0;-6.915257573E-1
4.761363440E0;3.127120018E0;-9.601499557E0;-7.274180651E-1
4.763811148E0;3.131905794E0;-9.718748093E0;-8.282157183E-1
4.766259690E0;3.081656456E0;-9.826425552E0;-9.478568435E-1
4.768709013E0;3.031407118E0;-9.895816803E0;-1.038784146E0
4.771157555E0;2.983550787E0;-9.938887596E0;-1.127318621E0
4.773605211E0;2.909373283E0;-9.953245163E0;-1.206281662E0
4.776053805E0;2.818445921E0;-1.001575756E1;-1.301994562E0
4.778503128E0;2.746661186E0;-1.007079220E1;-1.340279818E0
4.780951617E0;2.717947483E0;-1.015693378E1;-1.299601793E0
4.783399273E0;2.722733021E0;-1.020000458E1;-1.129711390E0
4.785847867E0;2.801696301E0;-1.025503922E1;-8.832506537E-1
4.788297190E0;2.959622622E0;-1.021675491E1;-5.623133183E-1
4.790745680E0;3.122334480E0;-1.015214825E1;-2.198405862E-1
4.793193388E0;3.280559778E0;-1.002772141E1;1.989033818E-1
4.795641930E0;3.469592810E0;-9.965209007E0;5.365904570E-1
4.798091253E0;3.622733593E0;-9.824032784E0;8.045865893E-1
4.800539794E0;3.845565081E0;-9.565608025E0;9.843474030E-1
4.802987450E0;4.015455723E0;-9.412167549E0;1.300199986E0
4.805436044E0;4.173381805E0;-9.419346809E0;1.398305774E0
4.807885367E0;4.273880482E0;-9.474679947E0;1.405484200E0
4.810333857E0;4.345963955E0;-9.587142944E0;1.321735382E0
4.812781565E0;4.410570145E0;-9.752247810E0;1.180558920E0
4.815230107E0;4.458426952E0;-9.960423470E0;9.891330600E-1
4.817679430E0;4.484747887E0;-1.021196842E1;8.623134494E-1
4.820127971E0;4.513461590E0;-1.053260708E1;7.734799385E-1
4.822575628E0;4.523033142E0;-1.088225842E1;6.897311211E-1
4.825024221E0;4.534996986E0;-1.121276665E1;6.059823632E-1
4.827473492E0;4.534996986E0;-1.153340530E1;5.629115105E-1
4.829922034E0;4.513461590E0;-1.182802105E1;5.054838061E-1
4.832369690E0;4.477569580E0;-1.204098225E1;4.289134443E-1
4.834818284E0;4.441677094E0;-1.222044468E1;3.930211067E-1
4.837267607E0;4.393820763E0;-1.229492092E1;2.994019389E-1
4.839716096E0;4.319344044E0;-1.238584805E1;2.419741899E-1
4.842163805E0;4.254737854E0;-1.241934776E1;1.654038578E-1
4.844612346E0;4.111168385E0;-1.244088268E1;5.533402413E-2
4.847061669E0;4.013062477E0;-1.240977669E1;-4.277170449E-2
4.849510211E0;3.867100477E0;-1.247198963E1;-1.384846121E-1
4.851957867E0;3.788137436E0;-1.252463150E1;-2.823530734E-1
4.854406461E0;3.682554007E0;-1.259880924E1;-3.876372576E-1
4.856855784E0;3.572484255E0;-1.271366501E1;-5.216353536E-1
4.859304273E0;3.503092289E0;-1.284317684E1;-6.771687865E-1
4.861751982E0;3.426522017E0;-1.297956753E1;-8.449655175E-1
4.864200523E0;3.400201082E0;-1.313988686E1;-9.885348678E-1
4.866649846E0;3.323630571E0;-1.328106308E1;-1.196710467E0
4.869098388E0;3.311666489E0;-1.339621735E1;-1.419542074E0
4.871546044E0;3.299702406E0;-1.347518063E1;-1.618146300E0
4.873994586E0;3.256631613E0;-1.354696560E1;-1.814357758E0
4.876443909E0;3.201297522E0;-1.354457283E1;-1.967797518E0
4.878892450E0;3.151048422E0;-1.349432373E1;-2.118545294E0
4.881340107E0;3.119941711E0;-1.343210983E1;-2.240579367E0
4.883788700E0;3.069692373E0;-1.333131218E1;-2.293221474E0
4.886238023E0;3.048156977E0;-1.314945793E1;-2.341077805E0
4.888686513E0;3.014657497E0;-1.298196030E1;-2.408077002E0
4.891134221E0;3.026621580E0;-1.282403374E1;-2.475075960E0
4.893582763E0;3.084049225E0;-1.266580868E1;-2.542374134E0
4.896032086E0;3.158226728E0;-1.250309658E1;-2.590230465E0
4.898480628E0;3.266202927E0;-1.236192036E1;-2.685943365E0
4.900928284E0;3.395415306E0;-1.220608711E1;-2.798406124E0
4.903376878E0;3.524627686E0;-1.204576874E1;-2.886940479E0
4.905826148E0;3.646661758E0;-1.188784218E1;-3.032902718E0
4.908274690E0;3.773481369E0;-1.169641590E1;-3.231806040E0
4.910722346E0;3.898207188E0;-1.151186943E1;-3.459124327E0
4.913170940E0;4.029812336E0;-1.128215885E1;-3.727419376E0
4.915620263E0;4.087240219E0;-1.104018497E1;-3.978665829E0
4.918068753E0;4.075275898E0;-1.083200932E1;-4.208675861E0
4.920516461E0;4.022634029E0;-1.064776134E1;-4.402494431E0
4.922965003E0;3.922135353E0;-1.049910736E1;-4.541278362E0
4.925414325E0;3.747160196E0;-1.033639526E1;-4.562813759E0
4.927862867E0;3.524627686E0;-1.024068260E1;-4.416851521E0
4.930310523E0;3.223132133E0;-1.019043350E1;-4.223032951E0
4.932759117E0;2.899801970E0;-1.024068260E1;-3.868596077E0
4.935208440E0;2.452044964E0;-1.029571724E1;-3.413660526E0
4.937656930E0;1.925324917E0;-1.041775131E1;-2.944368362E0
4.940104586E0;1.410568953E0;-1.050867844E1;-2.475075960E0
4.942553180E0;8.766704202E-1;-1.056640530E1;-1.982154489E0
4.945002503E0;4.145565331E-1;-1.062861919E1;-1.546361685E0
4.947451044E0;1.495514158E-2;-1.070518970E1;-1.208674550E0
4.949898700E0;-2.916252613E-1;-1.079372406E1;-9.957132936E-1
4.952347242E0;-5.979065299E-1;-1.105693436E1;-8.928219676E-1
4.954796565E0;-8.853443861E-1;-1.147837067E1;-8.377870321E-1
4.957245107E0;-1.189232826E0;-1.201705456E1;-7.992027402E-1
4.959692763E0;-1.467099428E0;-1.269691563E1;-7.872386575E-1
4.962141357E0;-1.751845241E0;-1.347996616E1;-7.537391186E-1
4.964590680E0;-2.058425665E0;-1.432014656E1;-6.364908218E-1
4.967039169E0;-2.235494614E0;-1.512234020E1;-4.546363056E-1
4.969486878E0;-2.405683994E0;-1.593141270E1;-2.102692872E-1
4.971935419E0;-2.546860695E0;-1.674557114E1;1.199402362E-1
4.974384742E0;-2.728715181E0;-1.740150452E1;5.318048596E-1
4.976833284E0;-2.903391123E0;-1.788993835E1;9.699904919E-1
4.979280940E0;-3.049652576E0;-1.822493362E1;1.381555915E0
4.981729534E0;-3.097508907E0;-1.841635895E1;1.764706731E0
4.984178857E0;-2.963510752E0;-1.852433586E1;2.018645048E0
4.986627346E0;-2.704786777E0;-1.851715660E1;2.114357948E0
4.989075003E0;-2.328814745E0;-1.843819427E1;2.076072693E0
4.991523596E0;-1.931606054E0;-1.828236198E1;1.932204247E0
4.993972919E0;-1.514955878E0;-1.805265045E1;1.735992789E0
4.996421461E0;-1.071984529E0;-1.776521301E1;1.458425403E0
4.998869117E0;-5.452644825E-1;-1.739911079E1;1.106381416E0
5.001317659E0;-5.204389244E-2;-1.695135307E1;7.184450030E-1
5.003766982E0;6.110670567E-1;-1.646052551E1;2.874378264E-1
5.006215523E0;1.123430252E0;-1.593859196E1;-2.123630047E-2
5.008663180E0;1.463211060E0;-1.547647762E1;-3.062812984E-1
5.011111773E0;1.671685696E0;-1.502632809E1;-4.857429862E-1
5.013561096E0;1.829612017E0;-1.463151264E1;-5.742774606E-1
5.016009586E0;1.920539260E0;-1.428186131E1;-6.197410822E-1
5.018457294E0;1.958824396E0;-1.396600819E1;-6.101697683E-1
5.020905836E0;2.037787676E0;-1.372642708E1;-5.551348329E-1
5.023355159E0;2.148156643E0;-1.350868034E1;-6.532405615E-1
5.025803700E0;2.145763636E0;-1.338425350E1;-6.747759581E-1
5.028251357E0;2.129014015E0;-1.330977726E1;-7.465606928E-1
5.030699950E0;2.073679924E0;-1.328106308E1;-8.258228898E-1
5.033149221E0;1.956431627E0;-1.326670647E1;-9.837492108E-1
