"Time (s)";"Gyroscope x (rad/s)";"Gyroscope y (rad/s)";"Gyroscope z (rad/s)"
1.437752630E-1;-1.903552771E0;-3.521839857E0;7.379034758E-1
1.462727110E-1;-1.865527511E0;-3.789391041E0;7.879929543E-1
1.487701590E-1;-1.830098391E0;-4.036173344E0;8.270871639E-1
1.512676070E-1;-1.800777674E0;-4.268295288E0;8.649597168E-1
1.537650550E-1;-1.780008912E0;-4.486978531E0;9.016105533E-1
1.562625030E-1;-1.760461807E0;-4.692223072E0;9.345963001E-1
1.587599500E-1;-1.742136359E0;-4.871812344E0;9.626953006E-1
1.612573980E-1;-1.723810911E0;-5.011085510E0;9.822424054E-1
1.637548460E-1;-1.701820493E0;-5.097826004E0;9.895725846E-1
1.662522940E-1;-1.677386522E0;-5.121037960E0;9.871291518E-1
1.687497420E-1;-1.652952671E0;-5.070948601E0;9.724688530E-1
1.712471900E-1;-1.643179178E0;-4.952444077E0;9.492566586E-1
1.737446380E-1;-1.644400835E0;-4.781406879E0;9.150491953E-1
1.762420860E-1;-1.650509238E0;-4.570053577E0;8.759549856E-1
1.787395340E-1;-1.657839417E0;-4.331823349E0;8.331956863E-1
1.812369820E-1;-1.661504507E0;-4.089927673E0;7.855495811E-1
1.837344300E-1;-1.652952671E0;-3.846810579E0;7.354601026E-1
1.862318780E-1;-1.635848999E0;-3.618353844E0;6.829272509E-1
1.886830750E-1;-1.612636805E0;-3.393561840E0;6.279509664E-1
1.911315650E-1;-1.584537745E0;-3.182208776E0;5.766398311E-1
1.935808880E-1;-1.552773714E0;-2.991624355E0;5.265503526E-1
1.960293780E-1;-1.519788027E0;-2.816922188E0;4.837910235E-1
1.984770860E-1;-1.484358788E0;-2.664210320E0;4.410317242E-1
2.009256280E-1;-1.451373100E0;-2.534710646E0;4.056025743E-1
2.033749500E-1;-1.419609070E0;-2.418649673E0;3.750602305E-1
2.058234400E-1;-1.390288353E0;-2.323357582E0;3.481829464E-1
2.082710960E-1;-1.362189412E0;-2.247459888E0;3.249707520E-1
2.107196900E-1;-1.336533785E0;-2.185153246E0;3.066453338E-1
2.131690130E-1;-1.312099934E0;-2.135063887E0;2.907632887E-1
2.156175030E-1;-1.291331053E0;-2.104521513E0;2.773246467E-1
2.180651590E-1;-1.269340634E0;-2.084974289E0;2.675510943E-1
2.205137000E-1;-1.243685007E0;-2.075200796E0;2.651077211E-1
2.229630230E-1;-1.215586066E0;-2.077644348E0;2.638860047E-1
2.254115650E-1;-1.182600260E0;-2.087417841E0;2.651077211E-1
2.278592210E-1;-1.145949483E0;-2.100856543E0;2.724378705E-1
2.303077630E-1;-1.110520363E0;-2.125290394E0;2.797680497E-1
2.327570860E-1;-1.077534556E0;-2.127733707E0;2.956500649E-1
2.352055750E-1;-1.060430884E0;-1.989682198E0;3.323009014E-1
2.376532840E-1;-1.082421303E0;-1.624395609E0;4.080459774E-1
2.401018250E-1;-1.145949483E0;-1.056307673E0;5.192201734E-1
2.425511480E-1;-1.220472813E0;-5.554128885E-1;6.340594292E-1
2.449996380E-1;-1.247350097E0;-3.794888556E-1;7.317950130E-1
2.474472940E-1;-1.220472813E0;-5.028799772E-1;8.136485219E-1
2.498958880E-1;-1.178935170E0;-7.508839965E-1;9.003888369E-1
2.523451590E-1;-1.139840961E0;-9.793408513E-1;1.006676316E0
2.547937000E-1;-1.101968408E0;-1.123500824E0;1.136175871E0
2.572413570E-1;-1.048213840E0;-1.206575990E0;1.290109396E0
2.596898980E-1;-9.614735842E-1;-1.274990916E0;1.467255116E0
2.621392210E-1;-8.527427912E-1;-1.362952948E0;1.663947940E0
2.645877630E-1;-7.293516397E-1;-1.455801725E0;1.874079347E0
2.670354190E-1;-6.022953987E-1;-1.542542100E0;2.087875843E0
2.694839610E-1;-4.764608741E-1;-1.625617266E0;2.293120623E0
2.719332840E-1;-3.542914093E-1;-1.702584028E0;2.484926701E0
2.743817730E-1;-2.382304370E-1;-1.781994224E0;2.658407211E0
2.768294300E-1;-1.258345395E-1;-1.851630807E0;2.812340736E0
2.792780230E-1;-2.321219631E-2;-1.901720285E0;2.944436550E0
2.817273460E-1;7.085828483E-2;-1.918823957E0;3.050724030E0
2.841758360E-1;1.490467340E-1;-1.882173061E0;3.138685942E0
2.866234920E-1;2.101314515E-1;-1.789324284E0;3.208322525E0
2.890720860E-1;2.589992285E-1;-1.667154908E0;3.263298750E0
2.915213570E-1;2.919849753E-1;-1.565754294E0;3.303614616E0
2.939698980E-1;3.188622594E-1;-1.496117592E0;3.332935333E0
2.964175550E-1;3.249707520E-1;-1.474127173E0;3.345152378E0
2.988660960E-1;3.200839758E-1;-1.482679009E0;3.343930721E0
3.013154190E-1;3.017585576E-1;-1.511999726E0;3.326826811E0
3.037639090E-1;2.712161839E-1;-1.558424115E0;3.292619467E0
3.062116170E-1;2.321219593E-1;-1.604848504E0;3.248638391E0
3.086601590E-1;1.930277348E-1;-1.648829460E0;3.194883823E0
3.111094820E-1;1.502684206E-1;-1.695253849E0;3.135020733E0
3.135579710E-1;1.075091213E-1;-1.736791492E0;3.075157881E0
3.160056280E-1;7.085828483E-2;-1.775885701E0;3.014073133E0
3.184542210E-1;3.542914242E-2;-1.817423344E0;2.959096909E0
3.209034920E-1;1.099525020E-2;-1.854074121E0;2.908854723E0
3.233520340E-1;-8.551862091E-3;-1.888281584E0;2.862430334E0
3.257996900E-1;-1.832541823E-2;-1.922489047E0;2.820892572E0
3.282482320E-1;-1.588202827E-2;-1.951809645E0;2.783020020E0
3.306975550E-1;-1.099525020E-2;-1.975021958E0;2.750034332E0
3.331460440E-1;4.886778072E-3;-1.988460541E0;2.719491959E0
3.355937530E-1;2.809897438E-2;-1.998234153E0;2.688949585E0
3.380422940E-1;5.986303091E-2;-2.001899242E0;2.658407211E0
3.404916170E-1;9.529217333E-2;-2.000677586E0;2.625421524E0
3.429401070E-1;1.392731816E-1;-1.992125630E0;2.589992285E0
3.453877630E-1;1.783674061E-1;-1.983573794E0;2.549676418E0
3.478363570E-1;2.223484069E-1;-1.970135093E0;2.505695343E0
3.502856800E-1;2.626643181E-1;-1.956696510E0;2.458049297E0
3.527341690E-1;2.993151546E-1;-1.943257809E0;2.405516624E0
3.551818250E-1;3.310792148E-1;-1.924932480E0;2.350540161E0
3.576304190E-1;3.603998721E-1;-1.902941942E0;2.291898966E0
3.600796900E-1;3.860554695E-1;-1.877286315E0;2.238144398E0
3.625282320E-1;4.080459774E-1;-1.851630807E0;2.186833143E0
3.649758880E-1;4.178195298E-1;-1.829640269E0;2.136743784E0
3.674244300E-1;4.263713956E-1;-1.808871388E0;2.093984365E0
3.698737530E-1;4.312581718E-1;-1.788102627E0;2.052446842E0
3.723222420E-1;4.239279926E-1;-1.753895164E0;2.010909081E0
3.747699500E-1;4.141544402E-1;-1.705027461E0;1.969371557E0
3.772184920E-1;3.970507085E-1;-1.639055848E0;1.935164094E0
3.796678150E-1;3.750602305E-1;-1.571862698E0;1.904621720E0
3.821163050E-1;3.445178568E-1;-1.519329786E0;1.877744436E0
3.845639610E-1;3.103103936E-1;-1.479013920E0;1.858197331E0
3.870125550E-1;2.761029601E-1;-1.458245158E0;1.848423839E0
3.894618250E-1;2.333436459E-1;-1.453358293E0;1.842315316E0
3.919103670E-1;1.954711229E-1;-1.452136636E0;1.847202063E0
3.943580230E-1;1.575985998E-1;-1.454580069E0;1.856975675E0
3.968065650E-1;1.270562261E-1;-1.461910248E0;1.876522779E0
3.992558880E-1;1.001789495E-1;-1.481457353E0;1.902178407E0
4.017044300E-1;7.941014320E-2;-1.511999726E0;1.931499004E0
4.041520860E-1;6.841489673E-2;-1.549872160E0;1.962041378E0
4.066006280E-1;6.474980712E-2;-1.595074892E0;1.996248841E0
4.090499500E-1;6.841489673E-2;-1.643942714E0;2.032899618E0
4.114984400E-1;8.429691941E-2;-1.697697282E0;2.067107201E0
4.139461480E-1;1.062874198E-1;-1.756338596E0;2.103757858E0
4.163946900E-1;1.380514801E-1;-1.819866657E0;2.140408754E0
4.188440130E-1;1.771457046E-1;-1.885838151E0;2.177059650E0
4.212925030E-1;2.223484069E-1;-1.949366331E0;2.212488890E0
4.237401590E-1;2.785463631E-1;-2.011672735E0;2.252804756E0
4.261887530E-1;3.408527672E-1;-2.077644348E0;2.291898966E0
4.286380230E-1;4.068242610E-1;-2.143615723E0;2.330993176E0
4.310865650E-1;4.789042473E-1;-2.213252306E0;2.367644072E0
4.335342210E-1;5.534276366E-1;-2.279376507E0;2.400629759E0
4.359827630E-1;6.267293096E-1;-2.342904568E0;2.429950476E0
4.384320860E-1;6.939224601E-1;-2.402767658E0;2.453162670E0
4.408806280E-1;7.574505806E-1;-2.462630749E0;2.470266342E0
4.433282840E-1;8.160919547E-1;-2.524937153E0;2.476374865E0
4.457768250E-1;8.698465228E-1;-2.593352079E0;2.477596521E0
4.482261480E-1;9.187142849E-1;-2.666653633E0;2.473931313E0
4.506746380E-1;9.602518678E-1;-2.749728918E0;2.470266342E0
4.531222940E-1;9.993461370E-1;-2.848686218E0;2.464157820E0
4.555708880E-1;1.033553600E0;-2.968412161E0;2.458049297E0
4.580202110E-1;1.065317631E0;-3.106463671E0;2.455605984E0
4.604687000E-1;1.095860004E0;-3.256732225E0;2.454384327E0
4.629163570E-1;1.127624035E0;-3.419217587E0;2.450719118E0
4.653649500E-1;1.158166409E0;-3.581702948E0;2.453162670E0
4.678142210E-1;1.183822036E0;-3.757627010E0;2.445832491E0
4.702627630E-1;1.216807723E0;-3.935994387E0;2.439723969E0
4.727104190E-1;1.249793530E0;-4.116805077E0;2.422620296E0
4.751589610E-1;1.281557560E0;-4.308610916E0;2.399408102E0
4.776082840E-1;1.319430113E0;-4.505303860E0;2.368865728E0
4.800567730E-1;1.365854502E0;-4.700775146E0;2.329771519E0
4.825044820E-1;1.417165637E0;-4.895024300E0;2.291898966E0
4.849530230E-1;1.478250384E0;-5.081943989E0;2.258913279E0
4.874023460E-1;1.550330400E0;-5.265197754E0;2.241809368E0
4.898508360E-1;1.627297044E0;-5.448451996E0;2.245474577E0
4.922984920E-1;1.717702508E0;-5.630484581E0;2.267465115E0
4.947470860E-1;1.812994719E0;-5.818625450E0;2.307780981E0
4.971964090E-1;1.918060422E0;-6.011653423E0;2.363978863E0
4.996448980E-1;2.030456305E0;-6.207124233E0;2.434837103E0
5.020925550E-1;2.152625799E0;-6.402595520E0;2.510582209E0
5.045411480E-1;2.279681921E0;-6.594401360E0;2.592435837E0
5.069904190E-1;2.409181595E0;-6.771547318E0;2.682841063E0
5.094389610E-1;2.533794403E0;-6.926702499E0;2.778133392E0
5.118866170E-1;2.647412062E0;-7.052536964E0;2.875868797E0
5.143351590E-1;2.743925810E0;-7.144164085E0;2.978643894E0
5.167844820E-1;2.825779438E0;-7.199140549E0;3.081266403E0
5.192329710E-1;2.890529156E0;-7.229682922E0;3.185110331E0
5.216806800E-1;2.938175201E0;-7.235791206E0;3.295062780E0
5.241292210E-1;2.967495918E0;-7.224795818E0;3.407458782E0
5.265785440E-1;2.974826097E0;-7.202805519E0;3.530849934E0
5.290270340E-1;2.962609291E0;-7.163711071E0;3.664014578E0
5.314746900E-1;2.929623365E0;-7.108735085E0;3.804509401E0
5.339232840E-1;2.872203827E0;-7.041541576E0;3.952334404E0
5.363726070E-1;2.794015408E0;-6.968240261E0;4.097716331E0
5.388210960E-1;2.698723078E0;-6.890051842E0;4.244319439E0
5.412687530E-1;2.589992285E0;-6.811863422E0;4.384814262E0
5.437173460E-1;2.472709656E0;-6.737339973E0;4.522865772E0
5.461666170E-1;2.355427027E0;-6.653042793E0;4.657252312E0
5.486151590E-1;2.238144398E0;-6.561415672E0;4.785530090E0
5.510628150E-1;2.125748396E0;-6.455128193E0;4.905256271E0
5.535113570E-1;2.025569439E0;-6.319520473E0;5.018873692E0
5.559606800E-1;1.935164094E0;-6.179025650E0;5.127604485E0
5.584092210E-1;1.858197331E0;-6.025092125E0;5.233891964E0
5.608568780E-1;1.793447495E0;-5.882153511E0;5.336514473E0
5.633054190E-1;1.747023106E0;-5.746545792E0;5.439136505E0
5.657547420E-1;1.716480851E0;-5.626819611E0;5.539315701E0
5.682032320E-1;1.701820493E0;-5.531527519E0;5.629721165E0
5.706508880E-1;1.701820493E0;-5.449673653E0;5.711574554E0
5.730994820E-1;1.715259075E0;-5.378815651E0;5.782433033E0
5.755488050E-1;1.737249613E0;-5.318952560E0;5.834965706E0
5.779972940E-1;1.762905240E0;-5.252981186E0;5.870394707E0
5.804449500E-1;1.787339091E0;-5.185787678E0;5.889942169E0
5.828935440E-1;1.809329629E0;-5.113708019E0;5.891163826E0
5.853428150E-1;1.828876734E0;-5.036741257E0;5.880168438E0
5.877913570E-1;1.848423839E0;-4.948779106E0;5.859399796E0
5.902390130E-1;1.861862421E0;-4.860816956E0;5.830079079E0
5.926875550E-1;1.875301123E0;-4.765524864E0;5.798315048E0
5.951368780E-1;1.889961362E0;-4.671454430E0;5.762885571E0
5.975854190E-1;1.902178407E0;-4.571275234E0;5.727456570E0
6.000330750E-1;1.914395332E0;-4.472318172E0;5.693249226E0
6.024816170E-1;1.916838646E0;-4.370917797E0;5.652933121E0
6.049309400E-1;1.914395332E0;-4.275625229E0;5.610173702E0
6.073794300E-1;1.905843496E0;-4.171781540E0;5.560084343E0
6.098271380E-1;1.893626451E0;-4.067937374E0;5.503886700E0
6.122756800E-1;1.880187869E0;-3.970201731E0;5.442801952E0
6.147250030E-1;1.869192600E0;-3.877352953E0;5.380495548E0
6.171734920E-1;1.858197331E0;-3.786947489E0;5.316967487E0
6.196211480E-1;1.849645495E0;-3.706315756E0;5.253438950E0
6.220697420E-1;1.844758749E0;-3.636679173E0;5.191132545E0
6.245190130E-1;1.845980406E0;-3.567042589E0;5.128826141E0
6.269675550E-1;1.848423839E0;-3.505957842E0;5.064076424E0
6.294152110E-1;1.848423839E0;-3.444873095E0;4.990774632E0
6.318637530E-1;1.848423839E0;-3.381345034E0;4.913807869E0
6.343130750E-1;1.838650227E0;-3.316595078E0;4.829511166E0
6.367616170E-1;1.827654958E0;-3.255510569E0;4.743992329E0
6.392092730E-1;1.810551286E0;-3.188317299E0;4.656030655E0
6.416578150E-1;1.792225838E0;-3.112572193E0;4.570511818E0
6.441071380E-1;1.765348554E0;-3.027053595E0;4.484993458E0
6.465556280E-1;1.739693046E0;-2.939091682E0;4.401917934E0
6.490033360E-1;1.711593986E0;-2.846242905E0;4.327394485E0
6.514518780E-1;1.682273388E0;-2.758280754E0;4.261423111E0
6.539012000E-1;1.656617761E0;-2.673983812E0;4.202781677E0
6.563496900E-1;1.634627223E0;-2.590908766E0;4.152692318E0
6.587973460E-1;1.610193372E0;-2.509055138E0;4.108711243E0
6.612459400E-1;1.588202834E0;-2.432088375E0;4.069617271E0
6.636952110E-1;1.564990640E0;-2.358786583E0;4.030522823E0
6.661437530E-1;1.540556788E0;-2.281819820E0;3.996315479E0
6.685914090E-1;1.516122937E0;-2.203478813E0;3.959664583E0
6.710399500E-1;1.490467310E0;-2.122846842E0;3.923013926E0
6.734892730E-1;1.468476772E0;-2.049545288E0;3.880254507E0
6.759378150E-1;1.445264578E0;-1.988460541E0;3.836273432E0
6.783854710E-1;1.445264578E0;-1.902941942E0;3.773967028E0
6.808340130E-1;1.478250384E0;-1.788102627E0;3.682339907E0
6.832833360E-1;1.524674773E0;-1.690367103E0;3.580939293E0
6.857318250E-1;1.568655729E0;-1.631725788E0;3.494199038E0
6.881795340E-1;1.602863193E0;-1.602405071E0;3.418453932E0
6.906280750E-1;1.627297044E0;-1.590188146E0;3.354925871E0
6.930773980E-1;1.628518820E0;-1.603626728E0;3.282845974E0
6.955258880E-1;1.612636805E0;-1.612178683E0;3.188775301E0
6.979735440E-1;1.584537745E0;-1.591409802E0;3.082488060E0
7.004221380E-1;1.549108624E0;-1.549872160E0;2.981087446E0
7.028714610E-1;1.489245653E0;-1.511999726E0;2.886864185E0
7.053199500E-1;1.412278891E0;-1.469240427E0;2.806232214E0
7.077676070E-1;1.319430113E0;-1.417929173E0;2.741482496E0
7.102162000E-1;1.214364409E0;-1.364174604E0;2.692614794E0
7.126654710E-1;1.095860004E0;-1.316528559E0;2.654742241E0
7.151140130E-1;9.651386738E-1;-1.278656006E0;2.619313002E0
7.175616690E-1;8.222004175E-1;-1.256665468E0;2.580218792E0
7.200102110E-1;6.707102656E-1;-1.237118363E0;2.539902925E0
7.224595340E-1;5.228852630E-1;-1.218793035E0;2.492256880E0
7.249080750E-1;3.762819171E-1;-1.193137407E0;2.438502312E0
7.273557320E-1;2.431172132E-1;-1.162595034E0;2.381082535E0
7.298042730E-1;1.319430023E-1;-1.111283898E0;2.327327967E0
7.322535960E-1;3.298575059E-2;-1.051420808E0;2.278460264E0
7.347020860E-1;-5.008947477E-2;-9.720106721E-1;2.243031025E0
7.371497420E-1;-1.099525094E-1;-8.840487003E-1;2.225927353E0
7.395983360E-1;-1.466033459E-1;-7.863131166E-1;2.219818830E0
7.420476590E-1;-1.759240031E-1;-7.154548764E-1;2.223484039E0
7.444961480E-1;-1.991362125E-1;-6.690304875E-1;2.227149010E0
7.469438050E-1;-2.247917950E-1;-6.421532035E-1;2.229592562E0
7.493923980E-1;-2.418955117E-1;-6.323796511E-1;2.222262383E0
7.518416690E-1;-2.541124523E-1;-6.445965767E-1;2.211266994E0
7.542902110E-1;-2.663294077E-1;-6.690304875E-1;2.197828531E0
7.567378670E-1;-2.638860047E-1;-7.007945180E-1;2.178281307E0
7.591864610E-1;-2.504473627E-1;-7.337802649E-1;2.158734322E0
7.616357320E-1;-2.260134816E-1;-7.716528177E-1;2.135522127E0
7.640842730E-1;-1.881409585E-1;-8.046385646E-1;2.112309933E0
7.665319300E-1;-1.429382563E-1;-8.400676847E-1;2.080545664E0
7.689804710E-1;-9.040539712E-2;-8.791618943E-1;2.046338320E0
7.714297940E-1;-3.787253052E-2;-9.182561636E-1;2.006022453E0
7.738782840E-1;1.343864016E-2;-9.549070001E-1;1.966928124E0
7.763259920E-1;5.986303091E-2;-9.903361201E-1;1.920503736E0
7.787745340E-1;1.050657257E-1;-1.013548255E0;1.876522779E0
7.812238570E-1;1.502684206E-1;-1.024543524E0;1.832541823E0
7.836723460E-1;1.954711229E-1;-1.023321867E0;1.786117435E0
7.861200030E-1;2.309002578E-1;-1.017213345E0;1.742136359E0
7.885685960E-1;2.577775419E-1;-1.007439852E0;1.700598717E0
7.910178670E-1;2.785463631E-1;-9.903361201E-1;1.661504507E0
7.934664090E-1;2.895416021E-1;-9.610154629E-1;1.619966984E0
7.959140650E-1;2.870981991E-1;-9.255862832E-1;1.575985909E0
7.983626590E-1;2.834331393E-1;-8.620582223E-1;1.529561520E0
8.008119300E-1;2.687727809E-1;-7.765395641E-1;1.475806952E0
8.032604710E-1;2.406738251E-1;-6.946860552E-1;1.420830727E0
8.057081280E-1;2.125748396E-1;-6.055023670E-1;1.367076159E0
8.081566690E-1;1.881409585E-1;-5.016583204E-1;1.318208337E0
8.106059920E-1;1.685938388E-1;-3.978142738E-1;1.276670814E0
8.130545340E-1;1.600419879E-1;-2.988570333E-1;1.238798261E0
8.155021900E-1;1.539335102E-1;-2.243336588E-1;1.205812454E0
8.179507320E-1;1.551551968E-1;-1.681357026E-1;1.169161677E0
8.204000550E-1;1.612636745E-1;-1.437018216E-1;1.123958945E0
8.228485440E-1;1.612636745E-1;-1.608055383E-1;1.068982720E0
8.252962530E-1;1.563768983E-1;-2.084516287E-1;9.993461370E-1
8.277447940E-1;1.466033459E-1;-2.878617644E-1;9.309312105E-1
8.301941170E-1;1.490467340E-1;-3.709369898E-1;8.820634484E-1
8.326426070E-1;1.771457046E-1;-4.503471553E-1;8.515210748E-1
8.350902630E-1;2.382304370E-1;-5.187620521E-1;8.515210748E-1
8.375388570E-1;3.420744538E-1;-5.981721878E-1;8.771766424E-1
8.399881800E-1;4.740174711E-1;-6.885775924E-1;9.260444641E-1
8.424366690E-1;6.536065936E-1;-7.997517586E-1;1.006676316E0
8.448843250E-1;8.331956863E-1;-9.145910740E-1;1.094638348E0
8.473328670E-1;1.014006495E0;-9.964445829E-1;1.182600260E0
8.497821900E-1;1.165496588E0;-1.040425539E0;1.243685007E0
8.522307320E-1;1.291331053E0;-1.083184958E0;1.286444306E0
8.546783880E-1;1.393953443E0;-1.129609346E0;1.336533785E0
8.571269300E-1;1.477028728E0;-1.179698825E0;1.401283622E0
8.595762530E-1;1.532004952E0;-1.244448543E0;1.473363638E0
8.620247420E-1;1.558882236E0;-1.276212692E0;1.552773714E0
8.644724500E-1;1.573542595E0;-1.276212692E0;1.646844268E0
8.669209920E-1;1.563768983E0;-1.239561796E0;1.749466538E0
8.693703150E-1;1.533226609E0;-1.190693974E0;1.850867152E0
8.718188050E-1;1.480693698E0;-1.130831003E0;1.940050840E0
8.742664610E-1;1.411057115E0;-1.047755718E0;2.010909081E0
8.767150550E-1;1.325538516E0;-9.402466416E-1;2.058555365E0
8.791643780E-1;1.227802992E0;-8.706100583E-1;2.091541052E0
8.816128670E-1;1.119072199E0;-8.510629535E-1;2.131856918E0
8.840605230E-1;9.993461370E-1;-8.571714163E-1;2.174616337E0
8.865091170E-1;8.747332692E-1;-8.730534315E-1;2.217375517E0
8.889583880E-1;7.488987446E-1;-8.803836107E-1;2.260134935E0
8.914069300E-1;6.218425035E-1;-8.718317747E-1;2.304115772E0
8.938545860E-1;4.886777997E-1;-8.473978639E-1;2.355427027E0
8.963031800E-1;3.579564989E-1;-8.266290426E-1;2.414068460E0
8.987524500E-1;2.345653474E-1;-8.657232523E-1;2.480039835E0
9.012009920E-1;1.209477559E-1;-9.683456421E-1;2.553341627E0
9.036486480E-1;1.588202827E-2;-1.136939406E0;2.620534658E0
9.060971900E-1;-7.574506104E-2;-1.350736022E0;2.664515734E0
9.085465130E-1;-1.551551968E-1;-1.584079623E0;2.668180943E0
9.109950550E-1;-2.272351831E-1;-1.784437537E0;2.677954435E0
9.134427110E-1;-2.846548259E-1;-1.911493778E0;2.703609943E0
9.158912530E-1;-3.225273490E-1;-1.986017108E0;2.741482496E0
9.183405750E-1;-3.567348123E-1;-2.012894392E0;2.785463572E0
9.207890650E-1;-3.750602305E-1;-2.004342556E0;2.837996483E0
9.232367210E-1;-3.872771561E-1;-1.973800182E0;2.891750813E0
9.256853150E-1;-3.884988427E-1;-1.928597450E0;2.944436550E0
9.281346380E-1;-3.836120665E-1;-1.866291046E0;2.990860939E0
9.305831280E-1;-3.836120665E-1;-1.802762985E0;3.031176805E0
9.330307840E-1;-3.933856487E-1;-1.745343328E0;3.067827702E0
9.354793780E-1;-4.104893506E-1;-1.695253849E0;3.103256702E0
9.379287000E-1;-4.398100376E-1;-1.665933132E0;3.137464285E0
9.403771900E-1;-4.789042473E-1;-1.661046386E0;3.172893286E0
9.428248460E-1;-5.314370990E-1;-1.684258580E0;3.208322525E0
9.452734400E-1;-5.876350403E-1;-1.738013148E0;3.243751764E0
9.477227110E-1;-6.536065936E-1;-1.817423344E0;3.285289288E0
9.501712530E-1;-7.159129977E-1;-1.923710704E0;3.329270363E0
9.526189090E-1;-7.806627750E-1;-2.054432154E0;3.370807886E0
9.550674500E-1;-8.466343284E-1;-2.202257156E0;3.416010618E0
9.575167730E-1;-9.040539265E-1;-2.371003628E0;3.464878321E0
9.599653150E-1;-9.626953006E-1;-2.551814318E0;3.516189575E0
9.624129710E-1;-1.010341406E0;-2.747285604E0;3.572387457E0
9.648615130E-1;-1.043327093E0;-2.934204817E0;3.627363682E0
9.673108360E-1;-1.062874198E0;-3.102798700E0;3.682339907E0
9.697593250E-1;-1.073869467E0;-3.266505718E0;3.736094475E0
9.722070340E-1;-1.067761064E0;-3.426547766E0;3.782518864E0
9.746555750E-1;-1.059209108E0;-3.584146261E0;3.824056625E0
9.771048980E-1;-1.044548869E0;-3.749074936E0;3.859485626E0
9.795533880E-1;-1.023779988E0;-3.917668819E0;3.887584686E0
9.820010440E-1;-1.001789451E0;-4.102144718E0;3.913240194E0
9.844496380E-1;-9.688037634E-1;-4.274403572E0;3.936452389E0
9.868989610E-1;-9.297095537E-1;-4.432002068E0;3.960886240E0
9.893474500E-1;-8.710681796E-1;-4.576162338E0;3.979211807E0
9.917951070E-1;-7.989882231E-1;-4.689779758E0;3.993872166E0
9.942437000E-1;-7.061394453E-1;-4.759416580E0;3.995093822E0
9.966929710E-1;-5.974085927E-1;-4.769189835E0;3.980433464E0
9.991415130E-1;-4.666872919E-1;-4.701996803E0;3.943782568E0
1.001589169E0;-3.090887070E-1;-4.528516293E0;3.881476164E0
1.004037711E0;-1.466033459E-1;-4.234087944E0;3.802066088E0
1.006487034E0;-0.000000000E0;-3.828485250E0;3.694556952E0
1.008935575E0;1.172826737E-1;-3.304378271E0;3.558948755E0
1.011383232E0;2.040229887E-1;-2.644663095E0;3.385468245E0
1.013831773E0;2.687727809E-1;-1.857739210E0;3.139907598E0
1.016281096E0;3.188622594E-1;-9.940012097E-1;2.773246527E0
1.018729586E0;3.872771561E-1;-1.437018216E-1;2.285790443E0
1.021177294E0;4.813476503E-1;6.259657145E-1;1.756796718E0
1.023625836E0;6.193991303E-1;1.293010950E0;1.204590797E0
1.026075159E0;7.476770282E-1;1.835443258E0;6.670452356E-1
1.028523648E0;8.832851648E-1;2.260592937E0;1.966928244E-1
1.030971305E0;1.032331824E0;2.590450525E0;-1.747023165E-1
1.033419898E0;1.194817185E0;2.831124306E0;-4.178195298E-1
1.035869221E0;1.362189412E0;2.994831324E0;-5.375455618E-1
1.038317711E0;1.522231340E0;3.087832928E0;-5.729747415E-1
1.040765367E0;1.663947940E0;3.098828077E0;-5.607577562E-1
1.043213961E0;1.788560748E0;3.042477369E0;-5.338805318E-1
1.045663232E0;1.888739705E0;2.926416397E0;-4.984513521E-1
1.048111773E0;1.958376288E0;2.805468798E0;-4.373666346E-1
1.050559430E0;1.970593214E0;2.730945349E0;-3.371876776E-1
1.053008023E0;1.931499004E0;2.710176468E0;-1.844758689E-1
1.055457294E0;1.845980406E0;2.724836826E0;2.443389036E-2
1.057905836E0;1.726254344E0;2.755379200E0;2.797680497E-1
1.060353492E0;1.574764252E0;2.788365126E0;5.729747415E-1
1.062802034E0;1.402505279E0;2.795695305E0;8.881719112E-1
1.065251357E0;1.222916245E0;2.765152931E0;1.198482275E0
1.067699898E0;1.049435616E0;2.675969124E0;1.490467310E0
1.070147555E0;9.040539265E-1;2.487828255E0;1.744579792E0
1.072596096E0;8.075400591E-1;2.160413980E0;1.957154632E0
1.075045419E0;7.611156702E-1;1.712052107E0;2.114753246E0
1.077493909E0;7.623373866E-1;1.163511276E0;2.222262383E0
1.079941617E0;7.977665067E-1;5.612159371E-1;2.295563936E0
1.082390159E0;8.356390595E-1;-2.519745007E-2;2.337101698E0
1.084839482E0;8.527427912E-1;-5.554128885E-1;2.357870340E0
1.087287971E0;8.502993584E-1;-1.009883285E0;2.378639221E0
1.089735628E0;8.026533127E-1;-1.428924441E0;2.423841953E0
1.092184221E0;7.036960125E-1;-1.814979911E0;2.483705044E0
1.094633544E0;5.876350403E-1;-2.148502588E0;2.554563284E0
1.097082034E0;4.703523815E-1;-2.424758196E0;2.621756554E0
1.099529690E0;3.628432751E-1;-2.633667946E0;2.681619406E0
1.101978284E0;2.724378705E-1;-2.757059097E0;2.725600481E0
1.104427555E0;2.113531530E-1;-2.754615784E0;2.742704153E0
1.106876096E0;1.869192570E-1;-2.595795393E0;2.713383436E0
1.109323753E0;2.015796006E-1;-2.264563560E0;2.610761166E0
1.111772346E0;2.504473627E-1;-1.770998955E0;2.426285267E0
1.114221617E0;3.090887070E-1;-1.162595034E0;2.200271845E0
1.116670159E0;3.591781855E-1;-4.967715442E-1;1.965706468E0
1.119117815E0;3.884988427E-1;1.727170646E-1;1.747023106E0
1.121566357E0;3.933856487E-1;8.018897176E-1;1.558882236E0
1.124015680E0;3.713951409E-1;1.330883503E0;1.395175099E0
1.126464221E0;3.249707520E-1;1.730377555E0;1.247350097E0
1.128911878E0;2.589992285E-1;1.978381515E0;1.110520363E0
1.131360419E0;1.759240031E-1;2.072452068E0;9.761339426E-1
1.133809742E0;7.452336699E-2;2.030914307E0;8.319739699E-1
1.136258232E0;-3.420744836E-2;1.875759244E0;6.829272509E-1
1.138705940E0;-1.514901221E-1;1.638750434E0;5.314370990E-1
1.141154482E0;-2.663294077E-1;1.352873921E0;3.823903799E-1
1.143603805E0;-3.677300513E-1;1.041341901E0;2.553341687E-1
1.146052294E0;-4.544703662E-1;7.249229550E-1;1.612636745E-1
1.148499950E0;-5.167768002E-1;4.256078303E-1;1.075091213E-1
1.150948544E0;-5.583143830E-1;1.519482583E-1;8.185353130E-2
1.153397867E0;-5.741963983E-1;-8.139539510E-2;6.841489673E-2
1.155846357E0;-5.741963983E-1;-2.719797492E-1;5.864133686E-2
1.158294013E0;-5.570927262E-1;-4.100312293E-1;4.398100078E-2
1.160742607E0;-5.265503526E-1;-4.955498278E-1;2.687728032E-2
1.163191878E0;-4.898995161E-1;-5.358657837E-1;7.330167107E-3
1.165640419E0;-4.459185004E-1;-5.370874405E-1;-1.099525020E-2
1.168088075E0;-3.946073353E-1;-4.943281412E-1;-2.076880634E-2
1.170536669E0;-3.298575282E-1;-4.283566475E-1;-2.565558441E-2
1.172985940E0;-2.638860047E-1;-3.587200642E-1;-1.954711229E-2
1.175434482E0;-1.918060333E-1;-2.890834510E-1;-2.443389036E-3
1.177882138E0;-1.197260618E-1;-2.243336588E-1;2.809897438E-2
1.180330680E0;-5.008947477E-2;-1.693574041E-1;6.474980712E-2
1.182780003E0;1.588202827E-2;-1.094943732E-1;1.087308154E-1
1.185228544E0;7.941014320E-2;-4.840964451E-2;1.514901221E-1
1.187676200E0;1.368297935E-1;1.511846948E-2;1.942494214E-1
1.190124742E0;1.918060333E-1;8.353336155E-2;2.345653474E-1
1.192574065E0;2.443388999E-1;1.556133330E-1;2.712161839E-1
1.195022555E0;2.919849753E-1;2.325800955E-1;3.078670204E-1
1.197470263E0;3.335226178E-1;3.071034551E-1;3.384093940E-1
1.199918805E0;3.665083647E-1;3.865135908E-1;3.665083647E-1
1.202368128E0;3.946073353E-1;4.659237564E-1;3.909422457E-1
1.204816617E0;4.129327536E-1;5.318952799E-1;4.080459774E-1
1.207264273E0;4.239279926E-1;5.856497884E-1;4.227063060E-1
1.209712867E0;4.275930822E-1;6.210789680E-1;4.300364852E-1
1.212162190E0;4.263713956E-1;6.430694461E-1;4.361449480E-1
1.214610680E0;4.153761268E-1;6.479562521E-1;4.349232614E-1
1.217058336E0;4.019374847E-1;6.418477297E-1;4.324798584E-1
1.219506930E0;3.811686933E-1;6.247440577E-1;4.251496792E-1
1.221956253E0;3.542914093E-1;5.990884304E-1;4.153761268E-1
1.224404742E0;3.200839758E-1;5.685460567E-1;4.068242610E-1
1.226852398E0;2.858765125E-1;5.343386531E-1;3.921639323E-1
1.229300940E0;2.480039895E-1;5.099047422E-1;3.811686933E-1
1.231750263E0;2.040229887E-1;4.830274582E-1;3.665083647E-1
1.234198805E0;1.637070626E-1;4.598152637E-1;3.494046330E-1
1.236646461E0;1.160609797E-1;4.439332485E-1;3.347443044E-1
1.239095003E0;7.452336699E-2;4.378247857E-1;3.225273490E-1
1.241544325E0;3.054236248E-2;4.366030693E-1;3.078670204E-1
1.243992867E0;-8.551862091E-3;4.402681589E-1;2.968717813E-1
1.246440523E0;-4.398100078E-2;4.500417113E-1;2.870981991E-1
1.248889065E0;-7.818844914E-2;4.622586668E-1;2.797680497E-1
1.251338388E0;-1.062874198E-1;4.781406820E-1;2.736595869E-1
1.253786878E0;-1.294996142E-1;5.013529062E-1;2.712161839E-1
1.256234586E0;-1.490467340E-1;5.270084739E-1;2.675510943E-1
1.258683128E0;-1.649287641E-1;5.636593103E-1;2.675510943E-1
1.261132450E0;-1.747023165E-1;6.137487888E-1;2.651077211E-1
1.263580940E0;-1.759240031E-1;6.711684465E-1;2.626643181E-1
1.266028596E0;-1.808107942E-1;7.224795818E-1;2.565558553E-1
1.268477190E0;-1.820324808E-1;7.701256871E-1;2.553341687E-1
1.270926513E0;-1.795890927E-1;8.092198968E-1;2.528907657E-1
1.273375003E0;-1.747023165E-1;8.409839869E-1;2.516690791E-1
1.275822659E0;-1.685938388E-1;8.605310917E-1;2.492256761E-1
1.278271253E0;-1.588202864E-1;8.788564801E-1;2.467822880E-1
1.280720575E0;-1.527118087E-1;8.849649429E-1;2.431172132E-1
1.283169065E0;-1.478250325E-1;8.751913905E-1;2.406738251E-1
1.285616721E0;-1.392731816E-1;8.678612709E-1;2.357870489E-1
1.288065315E0;-1.380514801E-1;8.483141065E-1;2.296785712E-1
1.290514586E0;-1.404948682E-1;8.214368224E-1;2.247917950E-1
1.292963128E0;-1.368297935E-1;7.982246280E-1;2.199050188E-1
1.295410784E0;-1.356080920E-1;7.823426127E-1;2.150182426E-1
1.297859378E0;-1.331647038E-1;7.750124335E-1;2.101314515E-1
1.300308648E0;-1.343863904E-1;7.725690603E-1;2.028012872E-1
1.302757190E0;-1.368297935E-1;7.811209559E-1;1.979145110E-1
1.305204846E0;-1.466033459E-1;7.921161652E-1;1.905843467E-1
1.307653388E0;-1.661504507E-1;8.031114340E-1;1.844758689E-1
1.310102711E0;-1.918060333E-1;8.214368224E-1;1.844758689E-1
1.312551253E0;-2.223484069E-1;8.483141065E-1;1.832541823E-1
1.314998909E0;-2.699944973E-1;8.556442857E-1;1.783674061E-1
1.317447450E0;-3.432961702E-1;8.312104344E-1;1.734806150E-1
1.319896773E0;-4.422534108E-1;7.725690603E-1;1.624853760E-1
1.322345315E0;-5.717530251E-1;6.846070886E-1;1.490467340E-1
1.324792971E0;-7.440119386E-1;5.685460567E-1;1.319430023E-1
1.327241513E0;-9.590302110E-1;4.280512035E-1;1.111742035E-1
1.329690836E0;-1.269340634E0;2.936648130E-1;6.963659078E-2
1.332139325E0;-1.787339091E0;1.030804738E-1;-1.099525020E-2
1.334587034E0;-2.499739647E0;-1.229330078E-1;-8.674030751E-2
1.337035575E0;-2.866248131E0;1.267508045E-2;-1.661504507E-1
1.339484898E0;-2.876021624E0;4.891359508E-1;-2.162399292E-1
1.341933388E0;-2.592588425E0;8.385405540E-1;-1.624853760E-1
1.344381044E0;-2.062373161E0;1.090209603E0;-6.597150117E-2
1.346829638E0;-1.364632726E0;1.236812949E0;3.909422457E-2
1.349278961E0;-6.499415040E-1;1.282015681E0;1.722589284E-1
1.351727450E0;-2.076880634E-2;1.302784443E0;2.968717813E-1
1.354175107E0;4.813476503E-1;1.295454383E0;3.640649617E-1
1.356623700E0;8.209787011E-1;1.245364904E0;3.726168275E-1
1.359073023E0;9.785773158E-1;1.157402873E0;3.457395434E-1
1.361521513E0;1.005454540E0;1.063332319E0;3.090887070E-1
1.363969169E0;9.382613897E-1;1.002247691E0;2.870981991E-1
1.366417763E0;8.112051487E-1;9.704836011E-1;2.809897363E-1
1.368867034E0;6.426113248E-1;9.497147799E-1;2.858765125E-1
1.371315575E0;4.544703662E-1;9.374978542E-1;2.907632887E-1
1.373763232E0;2.761029601E-1;9.350544214E-1;2.956500649E-1
1.376211825E0;1.258345395E-1;9.460496902E-1;2.968717813E-1
1.378661096E0;3.298575059E-2;9.802571535E-1;3.005368412E-1
1.381109638E0;-7.330167107E-3;1.024238110E0;3.066453338E-1
1.383557294E0;6.108472589E-3;1.064554095E0;3.078670204E-1
1.386005836E0;5.864133686E-2;1.087766290E0;3.054236174E-1
1.388455159E0;1.160609797E-1;1.093874693E0;3.005368412E-1
1.390903700E0;1.759240031E-1;1.087766290E0;3.005368412E-1
1.393351357E0;2.235700935E-1;1.070662498E0;3.066453338E-1
1.395799898E0;2.516690791E-1;1.045006990E0;3.103103936E-1
1.398249221E0;2.589992285E-1;1.009577751E0;3.090887070E-1
1.400697711E0;2.553341687E-1;9.680401683E-1;3.029802442E-1
1.403145419E0;2.516690791E-1;9.289459586E-1;2.993151546E-1
1.405593961E0;2.492256761E-1;8.935168386E-1;2.980934680E-1
1.408043284E0;2.431172132E-1;8.654178381E-1;3.054236174E-1
1.410491773E0;2.333436459E-1;8.434273601E-1;3.127537966E-1
1.412939482E0;2.223484069E-1;8.336538076E-1;3.188622594E-1
1.415388023E0;2.064663768E-1;8.287670016E-1;3.237490356E-1
1.417837346E0;1.856975704E-1;8.238802552E-1;3.225273490E-1
1.420285836E0;1.685938388E-1;8.238802552E-1;3.188622594E-1
1.422733544E0;1.527118087E-1;8.153283596E-1;3.127537966E-1
1.425182086E0;1.404948682E-1;8.006680608E-1;3.054236174E-1
1.427631409E0;1.343863904E-1;7.798992395E-1;2.980934680E-1
1.430079898E0;1.294996142E-1;7.493568659E-1;2.895416021E-1
1.432527555E0;1.246128380E-1;7.139277458E-1;2.785463631E-1
1.434976148E0;1.197260618E-1;6.821636558E-1;2.663294077E-1
1.437425471E0;1.136175916E-1;6.491779089E-1;2.577775419E-1
1.439873961E0;1.026223376E-1;6.125270724E-1;2.467822880E-1
1.442321617E0;8.918370306E-2;5.783196688E-1;2.309002578E-1
1.444770211E0;7.941014320E-2;5.526640415E-1;2.162399292E-1
1.447219482E0;6.474980712E-2;5.306735635E-1;2.015796006E-1
1.449668023E0;4.764608666E-2;5.147915483E-1;1.856975704E-1
1.452115680E0;3.176405653E-2;5.025745630E-1;1.685938388E-1
1.454564273E0;1.588202827E-2;5.025745630E-1;1.539335102E-1
1.457013544E0;-2.443389036E-3;5.025745630E-1;1.368297935E-1
1.459462086E0;-2.199050039E-2;5.062396526E-1;1.185043678E-1
1.461909742E0;-4.031591862E-2;5.111264586E-1;9.773556143E-2
1.464358284E0;-5.497625470E-2;5.111264586E-1;7.574506104E-2
1.466807607E0;-7.085828483E-2;5.123481154E-1;5.253286287E-2
1.469256148E0;-8.674030751E-2;5.123481154E-1;2.809897438E-2
1.471703805E0;-1.038440317E-1;5.050179958E-1;7.330167107E-3
1.474152346E0;-1.197260618E-1;4.976878166E-1;-1.710372418E-2
1.476601669E0;-1.343863904E-1;4.891359508E-1;-4.031591862E-2
1.479050211E0;-1.575985998E-1;4.769189954E-1;-6.474980712E-2
1.481497867E0;-1.832541823E-1;4.659237564E-1;-8.918370306E-2
1.483946409E0;-2.089097649E-1;4.549284875E-1;-1.136175916E-1
1.486395732E0;-2.382304370E-1;4.427115619E-1;-1.380514801E-1
1.488844221E0;-2.712161839E-1;4.353813827E-1;-1.637070626E-1
1.491291930E0;-3.103103936E-1;4.280512035E-1;-1.893626451E-1
1.493740471E0;-3.445178568E-1;4.280512035E-1;-2.150182426E-1
1.496189794E0;-3.860554695E-1;4.268295169E-1;-2.431172132E-1
1.498638284E0;-4.275930822E-1;4.268295169E-1;-2.712161839E-1
1.501085992E0;-4.679090083E-1;4.243861437E-1;-3.005368412E-1
1.503534534E0;-5.045598149E-1;4.280512035E-1;-3.323009014E-1
1.505983857E0;-5.485408306E-1;4.256078303E-1;-3.628432751E-1
1.508432346E0;-5.925218463E-1;4.256078303E-1;-3.958290219E-1
1.510880055E0;-6.352811456E-1;4.207210541E-1;-4.275930822E-1
1.513328596E0;-6.755970716E-1;4.158342779E-1;-4.605788291E-1
1.515777919E0;-7.220214605E-1;4.060607255E-1;-4.972296655E-1
1.518226409E0;-7.660024762E-1;3.914003670E-1;-5.363239050E-1
1.520674065E0;-8.099834919E-1;3.742966652E-1;-5.754181147E-1
1.523122659E0;-8.551861644E-1;3.523061574E-1;-6.132906675E-1
1.525571982E0;-8.991671801E-1;3.217637837E-1;-6.523848772E-1
1.528020471E0;-9.468132257E-1;2.838912606E-1;-6.914790869E-1
1.530468128E0;-9.932376146E-1;2.423536479E-1;-7.293516397E-1
1.532916721E0;-1.040883780E0;2.008160353E-1;-7.672241330E-1
1.535366044E0;-1.093416572E0;1.507265568E-1;-8.026533127E-1
1.537814534E0;-1.145949483E0;1.043021679E-1;-8.380824327E-1
1.540262190E0;-1.204590797E0;5.299099907E-2;-8.735115528E-1
1.542710784E0;-1.264453769E0;7.788302377E-3;-9.064973593E-1
1.545160055E0;-1.325538516E0;-3.497100621E-2;-9.382613897E-1
1.547608596E0;-1.390288353E0;-7.162184268E-2;-9.688037634E-1
1.550056253E0;-1.456259847E0;-1.058292910E-1;-9.993461370E-1
1.552504846E0;-1.524674773E0;-1.351499557E-1;-1.032331824E0
1.554954117E0;-1.590646267E0;-1.571404636E-1;-1.062874198E0
1.557402659E0;-1.655396104E0;-1.718007922E-1;-1.092194915E0
1.559850315E0;-1.726254344E0;-1.889045089E-1;-1.123958945E0
1.562298857E0;-1.793447495E0;-2.011214644E-1;-1.153279662E0
1.564748180E0;-1.856975675E0;-2.096733153E-1;-1.182600260E0
1.567196721E0;-1.916991353E0;-2.206685692E-1;-1.213142633E0
1.569644378E0;-1.971967697E0;-2.255553454E-1;-1.241241574E0
1.572092919E0;-2.024500608E0;-2.292204350E-1;-1.271783948E0
1.574542242E0;-2.075811625E0;-2.328855246E-1;-1.301104665E0
1.576990784E0;-2.121014357E0;-2.341072112E-1;-1.329203606E0
1.579438440E0;-2.163773775E0;-2.414373755E-1;-1.357302666E0
1.581886982E0;-2.197981119E0;-2.524326444E-1;-1.380514860E0
1.584336305E0;-2.229745150E0;-2.683146596E-1;-1.401283622E0
1.586784846E0;-2.252957344E0;-2.890834510E-1;-1.419609070E0
1.589232503E0;-2.270061016E0;-3.135173619E-1;-1.431825995E0
1.591681044E0;-2.281056404E0;-3.403946459E-1;-1.439156175E0
1.594130367E0;-2.284721375E0;-3.660502136E-1;-1.442821264E0
1.596578857E0;-2.282278061E0;-3.904841244E-1;-1.441599488E0
1.599026565E0;-2.273726225E0;-4.063661397E-1;-1.437934399E0
1.601475107E0;-2.263952732E0;-4.198047817E-1;-1.435491085E0
1.603924430E0;-2.249292374E0;-4.222481549E-1;-1.425717473E0
1.606372919E0;-2.229745150E0;-4.234698713E-1;-1.417165637E0
1.608820575E0;-2.208976507E0;-4.234698713E-1;-1.409835458E0
1.611269169E0;-2.180877447E0;-4.161396921E-1;-1.401283622E0
1.613718492E0;-2.150335073E0;-4.124746025E-1;-1.396396875E0
1.616166982E0;-2.118571043E0;-4.173613787E-1;-1.391510010E0
1.618614638E0;-2.088028669E0;-4.283566475E-1;-1.382958174E0
1.621063232E0;-2.050156116E0;-4.442386627E-1;-1.374406338E0
1.623512555E0;-2.018392086E0;-4.637857676E-1;-1.365854502E0
1.625961044E0;-1.984184623E0;-4.821111858E-1;-1.360967636E0
1.628408700E0;-1.946312070E0;-4.894413650E-1;-1.352415800E0
1.630857294E0;-1.912104607E0;-4.894413650E-1;-1.342642307E0
1.633306617E0;-1.877897143E0;-4.833329022E-1;-1.332868695E0
1.635755107E0;-1.843536973E0;-4.747810364E-1;-1.324316859E0
1.638202763E0;-1.812994719E0;-4.625640810E-1;-1.318208337E0
1.640651357E0;-1.777565479E0;-4.491254389E-1;-1.308434844E0
1.643100628E0;-1.749466538E0;-4.491254389E-1;-1.301104665E0
1.645549169E0;-1.721367598E0;-4.588989913E-1;-1.290109396E0
1.647996825E0;-1.693268657E0;-4.662291706E-1;-1.280335903E0
1.650445419E0;-1.672499776E0;-4.784461260E-1;-1.273005724E0
1.652894690E0;-1.645622492E0;-4.931064546E-1;-1.263232112E0
1.655343232E0;-1.622410297E0;-5.236487985E-1;-1.257123709E0
1.657790888E0;-1.597976446E0;-5.627430081E-1;-1.255901933E0
1.660239482E0;-1.569877505E0;-6.091674566E-1;-1.252236843E0
1.662688753E0;-1.545443535E0;-6.592568755E-1;-1.253458619E0
1.665137294E0;-1.523453116E0;-7.154548764E-1;-1.259567022E0
1.667584950E0;-1.503905892E0;-7.740961909E-1;-1.269340634E0
1.670033492E0;-1.480693698E0;-8.254073858E-1;-1.279114127E0
1.672482815E0;-1.458703279E0;-8.816053271E-1;-1.294996142E0
1.674931357E0;-1.436712742E0;-9.353598356E-1;-1.312099934E0
1.677379013E0;-1.413500547E0;-9.854493141E-1;-1.330425382E0
1.679827607E0;-1.393953443E0;-1.018435121E0;-1.348750710E0
1.682276878E0;-1.375627995E0;-1.031873703E0;-1.357302666E0
1.684725419E0;-1.359745979E0;-1.026986957E0;-1.359745979E0
1.687173075E0;-1.338977218E0;-1.003774762E0;-1.358524323E0
1.689621617E0;-1.316986680E0;-9.781191945E-1;-1.353637576E0
1.692070940E0;-1.286444306E0;-9.378032684E-1;-1.338977218E0
1.694519482E0;-1.253458619E0;-8.974873424E-1;-1.325538516E0
1.696967138E0;-1.214364409E0;-8.596147895E-1;-1.309656501E0
1.699415680E0;-1.180156946E0;-8.205205798E-1;-1.286444306E0
1.701865003E0;-1.144727707E0;-7.838697433E-1;-1.264453769E0
1.704313492E0;-1.111742020E0;-7.594358325E-1;-1.240019917E0
1.706761200E0;-1.081199646E0;-7.386670709E-1;-1.213142633E0
1.709209742E0;-1.053100705E0;-7.240067124E-1;-1.186265349E0
1.711659065E0;-1.027445078E0;-7.215633392E-1;-1.159388065E0
1.714107555E0;-9.993461370E-1;-7.227849960E-1;-1.132510781E0
1.716555263E0;-9.785773158E-1;-7.313368917E-1;-1.105633497E0
1.719003805E0;-9.553651214E-1;-7.459971905E-1;-1.079977989E0
1.721453128E0;-9.345963001E-1;-7.631009221E-1;-1.053100705E0
1.723901617E0;-9.162709117E-1;-7.838697433E-1;-1.026223421E0
1.726349273E0;-8.955020905E-1;-8.021951914E-1;-9.981244206E-1
1.728797867E0;-8.735115528E-1;-8.229639530E-1;-9.736905098E-1
1.731247190E0;-8.539644480E-1;-8.376243114E-1;-9.492566586E-1
1.733695680E0;-8.368607163E-1;-8.571714163E-1;-9.223793745E-1
1.736143336E0;-8.136485219E-1;-8.681666851E-1;-8.942803741E-1
1.738591930E0;-7.941014171E-1;-8.803836107E-1;-8.674030900E-1
1.741041253E0;-7.769976854E-1;-8.974873424E-1;-8.405258060E-1
1.743489742E0;-7.586722970E-1;-9.097042680E-1;-8.124268651E-1
1.745937450E0;-7.415685654E-1;-9.158127308E-1;-7.855495811E-1
1.748385992E0;-7.269082665E-1;-9.158127308E-1;-7.562289238E-1
1.750835315E0;-7.122479081E-1;-9.109259844E-1;-7.269082665E-1
1.753283805E0;-6.975875497E-1;-9.072608948E-1;-7.000309825E-1
1.755731461E0;-6.817055345E-1;-9.060391784E-1;-6.768187881E-1
1.758180055E0;-6.633801460E-1;-9.023740888E-1;-6.560499668E-1
1.760629378E0;-6.450546980E-1;-8.889354467E-1;-6.377245188E-1
1.763077867E0;-6.279509664E-1;-8.657232523E-1;-6.206207871E-1
1.765525523E0;-6.071822047E-1;-8.388460279E-1;-6.035171151E-1
1.767974117E0;-5.864133835E-1;-8.119687438E-1;-5.864133835E-1
1.770423440E0;-5.656445622E-1;-7.863131166E-1;-5.741963983E-1
1.772871930E0;-5.424323678E-1;-7.582141757E-1;-5.619794726E-1
1.775319586E0;-5.167768002E-1;-7.325585485E-1;-5.497625470E-1
1.777768180E0;-4.996730685E-1;-7.081246972E-1;-5.375455618E-1
1.780217503E0;-4.837910235E-1;-6.873558760E-1;-5.277720094E-1
1.782665992E0;-4.581354558E-1;-6.617003083E-1;-5.192201734E-1
1.785113648E0;-4.373666346E-1;-6.397097707E-1;-5.106683373E-1
1.787562242E0;-4.165978432E-1;-6.189410090E-1;-5.008947253E-1
1.790011513E0;-3.970507085E-1;-5.920637250E-1;-4.923428893E-1
1.792460055E0;-3.799470067E-1;-5.700731874E-1;-4.813476503E-1
1.794907711E0;-3.640649617E-1;-5.456393361E-1;-4.691306949E-1
1.797356305E0;-3.494046330E-1;-5.199837089E-1;-4.569137394E-1
1.799805575E0;-3.323009014E-1;-4.931064546E-1;-4.446968138E-1
1.802254117E0;-3.200839758E-1;-4.711159468E-1;-4.337015450E-1
1.804701773E0;-3.042019308E-1;-4.491254389E-1;-4.214846194E-1
1.807150315E0;-2.907632887E-1;-4.283566475E-1;-4.104893506E-1
1.809599638E0;-2.761029601E-1;-4.063661397E-1;-3.946073353E-1
1.812048180E0;-2.602209449E-1;-3.868190348E-1;-3.799470067E-1
1.814495836E0;-2.467822880E-1;-3.623851240E-1;-3.616215885E-1
1.816944430E0;-2.296785712E-1;-3.367295563E-1;-3.408527672E-1
1.819393700E0;-2.150182426E-1;-3.122956753E-1;-3.225273490E-1
1.821842242E0;-2.003578991E-1;-2.903051674E-1;-3.017585576E-1
1.824289898E0;-1.856975704E-1;-2.695363462E-1;-2.846548259E-1
1.826738440E0;-1.685938388E-1;-2.536543310E-1;-2.675510943E-1
1.829187763E0;-1.514901221E-1;-2.389939874E-1;-2.492256761E-1
1.831636305E0;-1.380514801E-1;-2.231119573E-1;-2.321219593E-1
1.834083961E0;-1.233911440E-1;-2.084516287E-1;-2.150182426E-1
1.836532503E0;-1.087308154E-1;-1.950129867E-1;-1.991362125E-1
1.838981825E0;-9.407047927E-2;-1.791309565E-1;-1.856975704E-1
1.841430367E0;-8.307522535E-2;-1.620272398E-1;-1.722589284E-1
1.843878023E0;-7.207997888E-2;-1.510319859E-1;-1.612636745E-1
1.846326565E0;-5.986303091E-2;-1.363716573E-1;-1.514901221E-1
1.848775888E0;-4.520269856E-2;-1.265980899E-1;-1.417165697E-1
1.851224430E0;-3.298575059E-2;-1.229330078E-1;-1.356080920E-1
1.853672086E0;-1.832541823E-2;-1.168245375E-1;-1.294996142E-1
1.856120628E0;-7.330167107E-3;-1.180462316E-1;-1.233911440E-1
1.858569950E0;7.330167107E-3;-1.192679256E-1;-1.197260618E-1
1.861018492E0;2.321219631E-2;-1.192679256E-1;-1.123958975E-1
1.863466148E0;3.787253052E-2;-1.290414780E-1;-1.099525094E-1
1.865914690E0;5.375456065E-2;-1.351499557E-1;-1.062874198E-1
1.868364013E0;7.085828483E-2;-1.473668963E-1;-1.014006436E-1
1.870812503E0;8.796200156E-2;-1.595838517E-1;-9.407047927E-2
1.873260211E0;1.062874198E-1;-1.730224788E-1;-8.429691941E-2
1.875708753E0;1.270562261E-1;-1.864611208E-1;-7.207997888E-2
1.878158075E0;1.453816444E-1;-1.974563748E-1;-5.741964281E-2
1.880606565E0;1.673721522E-1;-2.108950168E-1;-4.398100078E-2
1.883054273E0;1.893626451E-1;-2.182251811E-1;-2.687728032E-2
1.885502815E0;2.137965411E-1;-2.341072112E-1;-1.221694518E-2
1.887952138E0;2.382304370E-1;-2.512109280E-1;2.443389036E-3
1.890400628E0;2.663294077E-1;-2.634278834E-1;2.076880634E-2
1.892848336E0;2.980934680E-1;-2.805316150E-1;3.787253052E-2
1.895296878E0;3.274141252E-1;-2.964136302E-1;5.375456065E-2
1.897746200E0;3.628432751E-1;-3.147390485E-1;7.452336699E-2
1.900194690E0;4.031592011E-1;-3.330644667E-1;9.407047927E-2
1.902642398E0;4.422534108E-1;-3.526115716E-1;1.123958975E-1
1.905090940E0;4.801259339E-1;-3.758237660E-1;1.343863904E-1
1.907540263E0;5.204418898E-1;-4.027010500E-1;1.527118087E-1
1.909988753E0;5.619794726E-1;-4.295783341E-1;1.710372269E-1
1.912436409E0;6.059604883E-1;-4.540122151E-1;1.881409585E-1
1.914885003E0;6.462764144E-1;-4.808894992E-1;2.028012872E-1
1.917334325E0;6.890357137E-1;-5.041016936E-1;2.199050188E-1
1.919782815E0;7.293516397E-1;-5.334223509E-1;2.370087355E-1
1.922230523E0;7.672241330E-1;-5.578562617E-1;2.528907657E-1
1.924679065E0;8.014315963E-1;-5.810684562E-1;2.687727809E-1
1.927128388E0;8.344173431E-1;-6.042806506E-1;2.858765125E-1
1.929576878E0;8.649597168E-1;-6.250494719E-1;3.029802442E-1
1.932024534E0;8.942803741E-1;-6.421532035E-1;3.213056624E-1
1.934473128E0;9.211576581E-1;-6.604785919E-1;3.384093940E-1
1.936922450E0;9.455915689E-1;-6.763606071E-1;3.567348123E-1
1.939370940E0;9.675820470E-1;-6.910209656E-1;3.762819171E-1
1.941818596E0;9.871291518E-1;-7.069029808E-1;3.933856487E-1
1.944267190E0;1.004232883E0;-7.191199064E-1;4.104893506E-1
1.946716513E0;1.016449809E0;-7.313368917E-1;4.275930822E-1
1.949165003E0;1.025001645E0;-7.472189069E-1;4.483618736E-1
1.951612659E0;1.029888511E0;-7.606575489E-1;4.679090083E-1
1.954061253E0;1.029888511E0;-7.728744745E-1;4.874561131E-1
1.956510575E0;1.025001645E0;-7.850914598E-1;5.045598149E-1
1.958959065E0;1.014006495E0;-7.973083854E-1;5.179984570E-1
1.961406721E0;1.000567794E0;-8.144121170E-1;5.289937258E-1
1.963855315E0;9.785773158E-1;-8.241856694E-1;5.399889946E-1
1.966304638E0;9.541434050E-1;-8.339592218E-1;5.473191738E-1
1.968753128E0;9.236010313E-1;-8.425110579E-1;5.509842038E-1
1.971200784E0;8.906152844E-1;-8.461761475E-1;5.509842038E-1
1.973649378E0;8.527427912E-1;-8.400676847E-1;5.485408306E-1
1.976098700E0;8.148702383E-1;-8.315158486E-1;5.424323678E-1
1.978547190E0;7.757760286E-1;-8.205205798E-1;5.289937258E-1
1.980994846E0;7.354601026E-1;-7.985301018E-1;5.155550838E-1
1.983443440E0;6.914790869E-1;-7.692093849E-1;4.984513521E-1
1.985892763E0;6.462764144E-1;-7.325585485E-1;4.764608741E-1
1.988341253E0;5.998520255E-1;-6.910209656E-1;4.508052766E-1
1.990788909E0;5.522059202E-1;-6.433748603E-1;4.214846194E-1
1.993237503E0;5.057815313E-1;-5.810684562E-1;3.909422457E-1
1.995686773E0;4.508052766E-1;-5.163186193E-1;3.567348123E-1
1.998135315E0;3.946073353E-1;-4.430169761E-1;3.200839758E-1
2.000582971E0;3.347443044E-1;-3.672719002E-1;2.809897363E-1
2.003031565E0;2.699944973E-1;-2.903051674E-1;2.443388999E-1
2.005480888E0;2.028012872E-1;-2.170034945E-1;2.015796006E-1
2.007929378E0;1.307213157E-1;-1.461452097E-1;1.600419879E-1
2.010377034E0;5.741964281E-2;-7.528692484E-2;1.172826737E-1
2.012825628E0;-1.954711229E-2;-1.053711493E-2;7.574506104E-2
2.015274898E0;-9.773556143E-2;4.077405483E-2;3.542914242E-2
2.017723440E0;-1.747023165E-1;8.842013776E-2;-2.443389036E-3
2.020171096E0;-2.467822880E-1;1.238492802E-1;-3.787253052E-2
2.022619690E0;-3.164188862E-1;1.507265568E-1;-6.841489673E-2
2.025069013E0;-3.762819171E-1;1.751604527E-1;-9.529217333E-2
2.027517503E0;-4.337015450E-1;1.910424829E-1;-1.160609797E-1
2.029965159E0;-4.789042473E-1;2.093679011E-1;-1.331647038E-1
2.032413700E0;-5.179984570E-1;2.228065431E-1;-1.466033459E-1
2.034863023E0;-5.460974574E-1;2.362451702E-1;-1.575985998E-1
2.037311565E0;-5.656445622E-1;2.423536479E-1;-1.649287641E-1
2.039759221E0;-5.705313683E-1;2.472404242E-1;-1.661504507E-1
2.042207815E0;-5.619794726E-1;2.411319613E-1;-1.649287641E-1
2.044657086E0;-5.448757410E-1;2.191414535E-1;-1.588202864E-1
2.047105628E0;-5.228852630E-1;1.849340051E-1;-1.514901221E-1
2.049553284E0;-4.911212027E-1;1.470614821E-1;-1.429382563E-1
2.052001878E0;-4.581354558E-1;9.086353332E-2;-1.307213157E-1
2.054451148E0;-4.190412164E-1;1.878355257E-2;-1.197260618E-1
2.056899690E0;-3.787252903E-1;-7.040014863E-2;-1.148392856E-1
2.059347346E0;-3.408527672E-1;-1.571404636E-1;-1.111742035E-1
2.061795940E0;-3.078670204E-1;-2.353289127E-1;-1.148392856E-1
2.064245211E0;-2.748812735E-1;-3.000787199E-1;-1.209477559E-1
2.066693753E0;-2.443388999E-1;-3.538332880E-1;-1.331647038E-1
2.069141409E0;-2.150182426E-1;-3.904841244E-1;-1.490467340E-1
2.071589950E0;-1.869192570E-1;-4.100312293E-1;-1.685938388E-1
2.074039273E0;-1.575985998E-1;-4.136963189E-1;-1.893626451E-1
2.076487815E0;-1.270562261E-1;-4.063661397E-1;-2.064663768E-1
2.078935471E0;-9.162709117E-2;-3.843756318E-1;-2.186833173E-1
2.081384065E0;-5.497625470E-2;-3.538332880E-1;-2.321219593E-1
2.083833336E0;-1.466033421E-2;-3.037438095E-1;-2.443388999E-1
2.086281878E0;2.687728032E-2;-2.475458533E-1;-2.516690791E-1
2.088729534E0;7.085828483E-2;-1.901262105E-1;-2.492256761E-1
2.091178128E0;1.197260618E-1;-1.400367320E-1;-2.394521236E-1
2.093627398E0;1.685938388E-1;-9.727742523E-2;-2.247917950E-1
2.096075940E0;2.137965411E-1;-6.062658876E-2;-2.003578991E-1
2.098523596E0;2.663294077E-1;-2.519745007E-2;-1.698155403E-1
2.100972138E0;3.115321100E-1;1.679830020E-3;-1.331647038E-1
2.103421461E0;3.555130959E-1;2.855710872E-2;-9.407047927E-2
2.105870003E0;3.933856487E-1;5.909947306E-2;-5.375456065E-2
2.108317659E0;4.288147688E-1;9.819369763E-2;-1.343864016E-2
2.110766200E0;4.544703662E-1;1.421747059E-1;2.199050039E-2
2.113215523E0;4.727957845E-1;1.995943487E-1;5.253286287E-2
2.115664065E0;4.850127101E-1;2.680092454E-1;8.063183725E-2
2.118111721E0;4.886777997E-1;3.425326049E-1;9.529217333E-2
2.120560263E0;4.850127101E-1;4.146125913E-1;1.026223376E-1
2.123009586E0;4.740174711E-1;4.854708612E-1;9.773556143E-2
2.125458128E0;4.581354558E-1;5.477772951E-1;8.307522535E-2
2.127905784E0;4.361449480E-1;5.966450572E-1;5.619794875E-2
2.130354325E0;4.056025743E-1;6.271874309E-1;2.076880634E-2
2.132803648E0;3.701734245E-1;6.394043565E-1;-2.443389036E-2
2.135252190E0;3.323009014E-1;6.320741773E-1;-8.063183725E-2
2.137699846E0;2.883199155E-1;6.027535200E-1;-1.392731816E-1
2.140148388E0;2.480039895E-1;5.685460567E-1;-2.003578991E-1
2.142597711E0;2.089097649E-1;5.343386531E-1;-2.602209449E-1
2.145046253E0;1.747023165E-1;5.050179958E-1;-3.164188862E-1
2.147493909E0;1.368297935E-1;4.879142344E-1;-3.689517379E-1
2.149942450E0;1.038440317E-1;4.781406820E-1;-4.202629030E-1
2.152391773E0;7.941014320E-2;4.830274582E-1;-4.703523815E-1
2.154840315E0;6.108472496E-2;5.001311898E-1;-5.167768002E-1
2.157287971E0;5.253286287E-2;5.245651007E-1;-5.595360994E-1
2.159736513E0;5.375456065E-2;5.563291311E-1;-5.961869359E-1
2.162185836E0;6.474980712E-2;5.966450572E-1;-6.218425035E-1
2.164634378E0;9.040539712E-2;6.479562521E-1;-6.365028620E-1
2.167082034E0;1.246128380E-1;7.053758502E-1;-6.377245188E-1
2.169530575E0;1.685938388E-1;7.615737915E-1;-6.242858768E-1
2.171979898E0;2.186833173E-1;8.128849864E-1;-5.961869359E-1
2.174428440E0;2.748812735E-1;8.507575393E-1;-5.619794726E-1
2.176876096E0;3.298575282E-1;8.715263009E-1;-5.216635466E-1
2.179324638E0;3.872771561E-1;8.849649429E-1;-4.752391577E-1
2.181773961E0;4.361449480E-1;8.861866593E-1;-4.275930822E-1
2.184222503E0;4.874561131E-1;8.849649429E-1;-3.738385141E-1
2.186670159E0;5.277720094E-1;8.776348233E-1;-3.176405728E-1
2.189118700E0;5.656445622E-1;8.715263009E-1;-2.541124523E-1
2.191568023E0;5.925218463E-1;8.544226289E-1;-1.856975704E-1
2.194016565E0;6.059604883E-1;8.324320912E-1;-1.099525094E-1
2.196464221E0;6.145123243E-1;8.055548072E-1;-2.443389036E-2
2.198912763E0;6.132906675E-1;7.676823139E-1;6.474980712E-2
2.201362086E0;6.084038615E-1;7.200362086E-1;1.624853760E-1
2.203810628E0;5.974085927E-1;6.675033569E-1;2.614426315E-1
2.206258284E0;5.864133835E-1;6.100836992E-1;3.640649617E-1
2.208706825E0;5.790832043E-1;5.489989519E-1;4.679090083E-1
2.211156148E0;5.717530251E-1;4.903576374E-1;5.693096519E-1
2.213604690E0;5.717530251E-1;4.317162931E-1;6.682668924E-1
2.216052346E0;5.717530251E-1;3.694098890E-1;7.550072074E-1
2.218500888E0;5.790832043E-1;3.071034551E-1;8.331956863E-1
2.220950211E0;5.839699507E-1;2.484621257E-1;8.967237473E-1
2.223398753E0;5.864133835E-1;1.934858710E-1;9.492566586E-1
2.225846409E0;5.864133835E-1;1.446180940E-1;9.907942414E-1
2.228294950E0;5.839699507E-1;1.030804738E-1;1.023779988E0
2.230744273E0;5.827482939E-1;7.131642103E-2;1.050657272E0
2.233192815E0;5.876350403E-1;5.054761097E-2;1.071426034E0
2.235640471E0;5.864133835E-1;3.222219273E-2;1.084864736E0
2.238089013E0;5.876350403E-1;2.000524849E-2;1.092194915E0
2.240538336E0;5.851916671E-1;1.756185852E-2;1.092194915E0
2.242986878E0;5.876350403E-1;2.000524849E-2;1.082421303E0
2.245434534E0;5.864133835E-1;2.611372061E-2;1.065317631E0
2.247883128E0;5.925218463E-1;4.321744293E-2;1.040883780E0
2.250332398E0;5.961869359E-1;5.543438718E-2;1.009119630E0
2.252780940E0;6.071822047E-1;6.642963737E-2;9.736905098E-1
2.255228596E0;6.230642200E-1;7.498150319E-2;9.370396733E-1
2.257677138E0;6.450546980E-1;8.353336155E-2;8.967237473E-1
2.260126461E0;6.719319820E-1;9.575030953E-2;8.576295376E-1
2.262575003E0;7.024743557E-1;1.128540337E-1;8.209787011E-1
2.265022659E0;7.403468490E-1;1.324011385E-1;7.843278646E-1
2.267471200E0;7.831062078E-1;1.556133330E-1;7.537854910E-1
2.269920523E0;8.270871639E-1;1.898207814E-1;7.256865501E-1
2.272369065E0;8.698465228E-1;2.252499312E-1;6.988092661E-1
2.274816721E0;9.113841057E-1;2.606790662E-1;6.670452356E-1
2.277265263E0;9.517000318E-1;2.973299026E-1;6.377245188E-1
2.279714586E0;9.846857786E-1;3.327590525E-1;6.084038615E-1
2.282163128E0;1.014006495E0;3.669664860E-1;5.790832043E-1
2.284610784E0;1.043327093E0;3.889569938E-1;5.522059202E-1
2.287059325E0;1.065317631E0;4.011739492E-1;5.302154422E-1
2.289508648E0;1.081199646E0;4.060607255E-1;5.143333673E-1
2.291957190E0;1.087308168E0;4.060607255E-1;5.008947253E-1
2.294404846E0;1.093416572E0;4.048390090E-1;4.935645759E-1
2.296853388E0;1.093416572E0;4.048390090E-1;4.862344265E-1
2.299302711E0;1.094638348E0;4.097257853E-1;4.837910235E-1
2.301751253E0;1.093416572E0;4.219427407E-1;4.850127101E-1
2.304198909E0;1.093416572E0;4.366030693E-1;4.923428893E-1
2.306647450E0;1.097081661E0;4.475983381E-1;4.996730685E-1
2.309096773E0;1.095860004E0;4.500417113E-1;5.118899941E-1
2.311545315E0;1.099525094E0;4.488200247E-1;5.265503526E-1
2.313992971E0;1.103190184E0;4.402681589E-1;5.436540842E-1
2.316441565E0;1.111742020E0;4.304946065E-1;5.583143830E-1
2.318890836E0;1.114185452E0;4.121691883E-1;5.741963983E-1
2.321339378E0;1.115407109E0;3.914003670E-1;5.864133835E-1
2.323787034E0;1.119072199E0;3.694098890E-1;5.974085927E-1
2.326235628E0;1.117850542E0;3.498627543E-1;6.071822047E-1
2.328684898E0;1.119072199E0;3.327590525E-1;6.157340407E-1
2.331133440E0;1.119072199E0;3.193204105E-1;6.193991303E-1
2.333581096E0;1.119072199E0;3.071034551E-1;6.242858768E-1
2.336029690E0;1.112963676E0;2.936648130E-1;6.242858768E-1
2.338478961E0;1.114185452E0;2.838912606E-1;6.230642200E-1
2.340927503E0;1.116628766E0;2.741177082E-1;6.242858768E-1
2.343375159E0;1.116628766E0;2.631224692E-1;6.218425035E-1
2.345823753E0;1.115407109E0;2.594573796E-1;6.181774139E-1
2.348273023E0;1.112963676E0;2.570139766E-1;6.181774139E-1
2.350721565E0;1.115407109E0;2.545706034E-1;6.132906675E-1
2.353169221E0;1.114185452E0;2.533488870E-1;6.084038615E-1
2.355617763E0;1.119072199E0;2.594573796E-1;6.047387719E-1
2.358067086E0;1.121515512E0;2.741177082E-1;6.035171151E-1
2.360515628E0;1.122737288E0;2.912214398E-1;6.035171151E-1
2.362963284E0;1.123958945E0;3.144336343E-1;6.047387719E-1
2.365411878E0;1.127624035E0;3.400892019E-1;6.108472347E-1
2.367861148E0;1.128845692E0;3.718532622E-1;6.145123243E-1
2.370309690E0;1.128845692E0;3.987305462E-1;6.193991303E-1
2.372757346E0;1.127624035E0;4.207210541E-1;6.255075932E-1
2.375205940E0;1.123958945E0;4.366030693E-1;6.352811456E-1
2.377655211E0;1.119072199E0;4.439332485E-1;6.450546980E-1
2.380103753E0;1.112963676E0;4.414898455E-1;6.548282504E-1
2.382551409E0;1.101968408E0;4.414898455E-1;6.658235192E-1
2.385000003E0;1.090973258E0;4.414898455E-1;6.755970716E-1
2.387449273E0;1.083643079E0;4.475983381E-1;6.853706241E-1
2.389897815E0;1.067761064E0;4.451549351E-1;6.939224601E-1
2.392345471E0;1.054322362E0;4.463766217E-1;7.049177289E-1
2.394794065E0;1.040883780E0;4.414898455E-1;7.171346545E-1
2.397243388E0;1.023779988E0;4.280512035E-1;7.281299233E-1
2.399691878E0;1.006676316E0;4.182776511E-1;7.403468490E-1
2.402139534E0;9.859074950E-1;4.072824121E-1;7.525638342E-1
2.404588128E0;9.651386738E-1;3.975088596E-1;7.647807598E-1
2.407037450E0;9.419264793E-1;3.975088596E-1;7.769976854E-1
2.409485940E0;9.223793745E-1;4.085040987E-1;7.879929543E-1
2.411933596E0;9.052756429E-1;4.256078303E-1;7.941014171E-1
2.414382190E0;8.893936276E-1;4.451549351E-1;8.002098799E-1
2.416831513E0;8.771766424E-1;4.695888162E-1;8.038749695E-1
2.419280003E0;8.649597168E-1;5.123481154E-1;8.075400591E-1
2.421727659E0;8.539644480E-1;5.575508475E-1;8.136485219E-1
2.424176253E0;8.454126120E-1;5.893148780E-1;8.136485219E-1
2.426625575E0;8.356390595E-1;6.161921620E-1;8.075400591E-1
2.429074065E0;8.319739699E-1;6.369609833E-1;8.026533127E-1
2.431521721E0;8.258655071E-1;6.467345357E-1;7.953231335E-1
2.433970315E0;8.222004175E-1;6.503996253E-1;7.879929543E-1
2.436419638E0;8.136485219E-1;6.442911625E-1;7.794411182E-1
2.438868128E0;8.063184023E-1;6.296308041E-1;7.733326554E-1
2.441315784E0;7.941014171E-1;6.149705052E-1;7.660024762E-1
2.443764378E0;7.879929543E-1;6.015318632E-1;7.611156702E-1
2.446213700E0;7.782194018E-1;5.893148780E-1;7.574505806E-1
2.448662190E0;7.660024762E-1;5.868715048E-1;7.513421178E-1
2.451109846E0;7.550072074E-1;5.880932212E-1;7.440119386E-1
2.453558440E0;7.440119386E-1;5.990884304E-1;7.354601026E-1
2.456007763E0;7.366818190E-1;6.100836992E-1;7.317950130E-1
2.458456253E0;7.269082665E-1;6.210789680E-1;7.269082665E-1
2.460903909E0;7.183563709E-1;6.345176101E-1;7.183563709E-1
2.463352503E0;7.073611021E-1;6.503996253E-1;7.110261917E-1
2.465801825E0;6.988092661E-1;6.675033569E-1;7.012526393E-1
2.468250315E0;6.865923405E-1;6.846070886E-1;6.951441765E-1
2.470697971E0;6.731536984E-1;7.004891038E-1;6.927008033E-1
2.473146565E0;6.584933400E-1;7.127060294E-1;6.914790869E-1
2.475595888E0;6.462764144E-1;7.237012982E-1;6.853706241E-1
2.478044378E0;6.377245188E-1;7.383615971E-1;6.804838181E-1
2.480492086E0;6.279509664E-1;7.566870451E-1;6.731536984E-1
2.482940628E0;6.181774139E-1;7.762341499E-1;6.670452356E-1
2.485389950E0;6.120689511E-1;7.921161652E-1;6.597150564E-1
2.487838440E0;6.035171151E-1;8.006680608E-1;6.560499668E-1
2.490286096E0;5.925218463E-1;7.994463444E-1;6.572716236E-1
2.492734690E0;5.888567567E-1;7.994463444E-1;6.560499668E-1
2.495184013E0;5.815265775E-1;7.957812548E-1;6.536065936E-1
2.497632503E0;5.741963983E-1;7.921161652E-1;6.499415040E-1
2.500080211E0;5.680879354E-1;7.884510756E-1;6.450546980E-1
2.502528753E0;5.632011890E-1;7.823426127E-1;6.413896084E-1
2.504978075E0;5.583143830E-1;7.750124335E-1;6.389462352E-1
2.507426565E0;5.522059202E-1;7.676823139E-1;6.377245188E-1
2.509874273E0;5.460974574E-1;7.603521347E-1;6.352811456E-1
2.512322815E0;5.399889946E-1;7.542436719E-1;6.328377724E-1
2.514772138E0;5.351021886E-1;7.469134927E-1;6.279509664E-1
2.517220628E0;5.314370990E-1;7.505785823E-1;6.218425035E-1
2.519668336E0;5.241069198E-1;7.530219555E-1;6.157340407E-1
2.522116878E0;5.204418898E-1;7.579087615E-1;6.120689511E-1
2.524566200E0;5.155550838E-1;7.713474035E-1;6.132906675E-1
2.527014742E0;5.094466209E-1;7.835643291E-1;6.132906675E-1
2.529462398E0;4.996730685E-1;7.896727920E-1;6.108472347E-1
2.531910940E0;4.874561131E-1;7.945595980E-1;6.071822047E-1
2.534360263E0;4.752391577E-1;7.994463444E-1;6.010736823E-1
2.536808805E0;4.654656053E-1;8.055548072E-1;5.937435627E-1
2.539256461E0;4.581354558E-1;8.116632700E-1;5.876350403E-1
2.541705003E0;4.459185004E-1;8.165500760E-1;5.778614879E-1
2.544154325E0;4.398100376E-1;8.251019120E-1;5.754181147E-1
2.546602867E0;4.227063060E-1;8.299887180E-1;5.754181147E-1
2.549050523E0;4.092676640E-1;8.287670016E-1;5.741963983E-1
2.551499065E0;3.958290219E-1;8.275453448E-1;5.705313683E-1
2.553948388E0;3.799470067E-1;8.251019120E-1;5.644228458E-1
2.556396930E0;3.713951409E-1;8.251019120E-1;5.583143830E-1
2.558844586E0;3.628432751E-1;8.275453448E-1;5.546492934E-1
2.561293128E0;3.579564989E-1;8.348754644E-1;5.509842038E-1
2.563742450E0;3.506263196E-1;8.373188972E-1;5.448757410E-1
2.566190992E0;3.445178568E-1;8.299887180E-1;5.387672782E-1
2.568638648E0;3.335226178E-1;8.153283596E-1;5.338805318E-1
2.571087190E0;3.249707520E-1;8.031114340E-1;5.302154422E-1
2.573536513E0;3.176405728E-1;7.884510756E-1;5.277720094E-1
2.575985055E0;3.078670204E-1;7.689039707E-1;5.265503526E-1
2.578432711E0;2.944283783E-1;7.481352091E-1;5.253286362E-1
2.580881305E0;2.773246467E-1;7.237012982E-1;5.265503526E-1
2.583330575E0;2.577775419E-1;6.980457306E-1;5.289937258E-1
2.585779117E0;2.382304370E-1;6.748335361E-1;5.338805318E-1
2.588226773E0;2.125748396E-1;6.418477297E-1;5.363239050E-1
2.590675367E0;1.820324808E-1;6.064186096E-1;5.351021886E-1
2.593124638E0;1.527118087E-1;5.746545792E-1;5.302154422E-1
2.595573180E0;1.270562261E-1;5.502206683E-1;5.228852630E-1
2.598020836E0;1.026223376E-1;5.343386531E-1;5.094466209E-1
2.600469430E0;8.185353130E-2;5.233433843E-1;4.947862923E-1
2.602918700E0;6.597150117E-2;5.147915483E-1;4.764608741E-1
2.605367242E0;5.741964281E-2;5.050179958E-1;4.556920528E-1
2.607814898E0;5.253286287E-2;4.928010404E-1;4.337015450E-1
2.610263492E0;4.764608666E-2;4.769189954E-1;4.104893506E-1
2.612712815E0;4.886778072E-2;4.500417113E-1;3.872771561E-1
2.615161305E0;5.008947477E-2;4.158342779E-1;3.603998721E-1
2.617608961E0;5.619794875E-2;3.742966652E-1;3.384093940E-1
2.620057555E0;5.986303091E-2;3.266505599E-1;3.164188862E-1
2.622506878E0;6.108472496E-2;2.728960216E-1;2.944283783E-1
2.624955367E0;6.597150117E-2;2.179197669E-1;2.724378705E-1
2.627403023E0;6.841489673E-2;1.678302884E-1;2.516690791E-1
2.629851617E0;6.963659078E-2;1.177408099E-1;2.296785712E-1
2.632300940E0;6.841489673E-2;7.742489129E-2;2.076880634E-1
2.634749430E0;6.352811307E-2;4.688252881E-2;1.881409585E-1
2.637197086E0;5.741964281E-2;2.733541466E-2;1.673721522E-1
2.639645680E0;4.764608666E-2;1.511846948E-2;1.490467340E-1
2.642095003E0;3.665083647E-2;1.023169141E-2;1.307213157E-1
2.644543492E0;2.076880634E-2;1.267508045E-2;1.111742035E-1
2.646991148E0;1.221694518E-3;2.000524849E-2;9.773556143E-2
2.649439742E0;-2.076880634E-2;3.588727489E-2;7.941014320E-2
2.651889065E0;-4.764608666E-2;4.932591692E-2;6.108472496E-2
2.654337555E0;-7.452336699E-2;6.642963737E-2;4.520269856E-2
2.656785263E0;-1.075091213E-1;7.864658535E-2;3.054236248E-2
2.659233805E0;-1.453816444E-1;8.842013776E-2;1.588202827E-2
2.661683128E0;-1.881409585E-1;9.697200358E-2;-0.000000000E0
2.664131617E0;-2.370087355E-1;1.055238619E-1;-1.343864016E-2
2.666579273E0;-2.870981991E-1;1.104106456E-1;-2.565558441E-2
2.669027867E0;-3.432961702E-1;1.140757278E-1;-3.909422457E-2
2.671477190E0;-3.994941115E-1;1.152974218E-1;-5.008947477E-2
2.673925680E0;-4.556920528E-1;1.189625040E-1;-6.352811307E-2
2.676373388E0;-5.094466209E-1;1.226275861E-1;-7.818844914E-2
2.678821930E0;-5.595360994E-1;1.299577504E-1;-9.651386738E-2
2.681271253E0;-6.084038615E-1;1.482831687E-1;-1.172826737E-1
2.683719742E0;-6.572716236E-1;1.690519750E-1;-1.429382563E-1
2.686167450E0;-7.049177289E-1;1.995943487E-1;-1.710372269E-1
2.688615992E0;-7.562289238E-1;2.338017821E-1;-2.028012872E-1
2.691065315E0;-8.112051487E-1;2.716743052E-1;-2.370087355E-1
2.693513857E0;-8.686248064E-1;3.107685447E-1;-2.712161839E-1
2.695961513E0;-9.284878373E-1;3.461976945E-1;-3.054236174E-1
2.698410055E0;-9.969027042E-1;3.767400384E-1;-3.420744538E-1
2.700859378E0;-1.066539288E0;4.085040987E-1;-3.811686933E-1
2.703307919E0;-1.142284393E0;4.378247857E-1;-4.214846194E-1
2.705755575E0;-1.221694469E0;4.561502039E-1;-4.642439187E-1
2.708204117E0;-1.299883008E0;4.634803534E-1;-5.082249045E-1
2.710653440E0;-1.379293084E0;4.622586668E-1;-5.522059202E-1
2.713101982E0;-1.456259847E0;4.463766217E-1;-5.998520255E-1
2.715549638E0;-1.532004952E0;4.207210541E-1;-6.438329816E-1
2.717998232E0;-1.606528282E0;3.816268146E-1;-6.878139973E-1
2.720447503E0;-1.677386522E0;3.339807391E-1;-7.317950130E-1
2.722896044E0;-1.749466538E0;2.753393948E-1;-7.721109390E-1
2.725343700E0;-1.816659689E0;2.044811249E-1;-8.136485219E-1
2.727792294E0;-1.881562233E0;1.287360638E-1;-8.490777016E-1
2.730241565E0;-1.942646980E0;4.566083103E-2;-8.845068216E-1
2.732690107E0;-2.003731728E0;-4.230117425E-2;-9.187142849E-1
2.735137763E0;-2.056264639E0;-1.278197914E-1;-9.529217482E-1
2.737586357E0;-2.110019207E0;-2.047865391E-1;-9.883508682E-1
2.740035628E0;-2.157665253E0;-2.732014358E-1;-1.020114899E0
2.742484169E0;-2.200424433E0;-3.245126009E-1;-1.053100705E0
2.744931825E0;-2.240740538E0;-3.538332880E-1;-1.088529825E0
2.747380419E0;-2.272504568E0;-3.599417508E-1;-1.125180602E0
2.749829742E0;-2.294495106E0;-3.428380191E-1;-1.160609841E0
2.752278232E0;-2.303046942E0;-3.049654961E-1;-1.196038961E0
2.754725888E0;-2.301825285E0;-2.560977042E-1;-1.235133171E0
2.757174482E0;-2.287164927E0;-1.974563748E-1;-1.279114127E0
2.759623805E0;-2.259065866E0;-1.400367320E-1;-1.325538516E0
2.762072294E0;-2.219971657E0;-9.116895497E-2;-1.376849771E0
2.764519950E0;-2.174768925E0;-5.207473040E-2;-1.430604339E0
2.766968544E0;-2.128344536E0;-2.275406010E-2;-1.484358788E0
2.769417867E0;-2.081920147E0;-6.872031838E-3;-1.534448266E0
2.771866357E0;-2.037939072E0;2.901524538E-3;-1.580872655E0
2.774314013E0;-2.000066519E0;1.267508045E-2;-1.618745208E0
2.776762607E0;-1.963415861E0;1.511846948E-2;-1.651731014E0
2.779211930E0;-1.935316801E0;1.145338640E-2;-1.678608298E0
2.781660419E0;-1.901109338E0;9.009997360E-3;-1.696933627E0
2.784108128E0;-1.863084197E0;1.145338640E-2;-1.707928896E0
2.786556669E0;-1.827654958E0;1.023169141E-2;-1.714037418E0
2.789005992E0;-1.783674002E0;6.566607859E-3;-1.714037418E0
2.791454482E0;-1.737249613E0;2.901524538E-3;-1.707928896E0
2.793902190E0;-1.687160134E0;-7.635590737E-4;-1.701820493E0
2.796350732E0;-1.637070656E0;-8.093725890E-3;-1.693268657E0
2.798800055E0;-1.593089700E0;-1.420219894E-2;-1.679829955E0
2.801248544E0;-1.550330400E0;-2.275406010E-2;-1.662726283E0
2.803696253E0;-1.516122937E0;-4.230117425E-2;-1.641957402E0
2.806144794E0;-1.485580564E0;-6.551336497E-2;-1.612636805E0
2.808594117E0;-1.469698548E0;-9.483403713E-2;-1.580872655E0
2.811042659E0;-1.457481503E0;-1.265980899E-1;-1.546665311E0
2.813490315E0;-1.459924936E0;-1.669140160E-1;-1.514901161E0
2.815938857E0;-1.468476772E0;-2.121167034E-1;-1.484358788E0
2.818388180E0;-1.481915474E0;-2.646495700E-1;-1.457481503E0
2.820836721E0;-1.500240922E0;-3.269560039E-1;-1.440377831E0
2.823284378E0;-1.521009684E0;-3.855973184E-1;-1.424495816E0
2.825732919E0;-1.546665311E0;-4.405735731E-1;-1.408613801E0
2.828182242E0;-1.573542595E0;-4.772244096E-1;-1.391510010E0
2.830630784E0;-1.600419760E0;-4.992149174E-1;-1.375627995E0
2.833078440E0;-1.623632073E0;-5.077667832E-1;-1.359745979E0
2.835527034E0;-1.643179178E0;-5.053234100E-1;-1.349972486E0
2.837976305E0;-1.655396104E0;-5.004366040E-1;-1.341420531E0
2.840424846E0;-1.660282850E0;-5.016583204E-1;-1.334090471E0
2.842872503E0;-1.661504507E0;-5.102101564E-1;-1.330425382E0
2.845321096E0;-1.650509238E0;-5.248705149E-1;-1.327981949E0
2.847770419E0;-1.635848999E0;-5.456393361E-1;-1.327981949E0
2.850218909E0;-1.608971715E0;-5.774033666E-1;-1.329203606E0
2.852666565E0;-1.575985909E0;-6.238277555E-1;-1.330425382E0
2.855115159E0;-1.536891699E0;-6.592568755E-1;-1.330425382E0
2.857564430E0;-1.494132400E0;-6.836907864E-1;-1.332868695E0
2.860012971E0;-1.453816533E0;-6.861341596E-1;-1.335312128E0
2.862460628E0;-1.414722204E0;-6.726955175E-1;-1.337755442E0
2.864909221E0;-1.376849771E0;-6.629219651E-1;-1.340198874E0
2.867358544E0;-1.341420531E0;-6.507050395E-1;-1.335312128E0
2.869807034E0;-1.305991411E0;-6.470399499E-1;-1.329203606E0
2.872254690E0;-1.270562291E0;-6.470399499E-1;-1.320651770E0
2.874703284E0;-1.236354828E0;-6.629219651E-1;-1.309656501E0
2.877152607E0;-1.200925708E0;-6.971294284E-1;-1.299883008E0
2.879601096E0;-1.164274931E0;-7.447755337E-1;-1.291331053E0
2.882048753E0;-1.132510781E0;-8.009734750E-1;-1.281557560E0
2.884497346E0;-1.101968408E0;-8.693883419E-1;-1.273005724E0
2.886946669E0;-1.070204377E0;-9.426900148E-1;-1.265675545E0
2.889395159E0;-1.039662004E0;-1.015991688E0;-1.257123709E0
2.891842867E0;-1.016449809E0;-1.086849928E0;-1.246128440E0
2.894291409E0;-9.883508682E-1;-1.145491362E0;-1.232689738E0
2.896740732E0;-9.639169574E-1;-1.199245930E0;-1.222916245E0
2.899189221E0;-9.394831061E-1;-1.243226886E0;-1.211920977E0
2.901636930E0;-9.174925685E-1;-1.273769259E0;-1.199704051E0
2.904085471E0;-9.016105533E-1;-1.296981454E0;-1.187487125E0
2.906534794E0;-8.783983588E-1;-1.310420036E0;-1.172826767E0
2.908983336E0;-8.588512540E-1;-1.311641812E0;-1.158166409E0
2.911430992E0;-8.380824327E-1;-1.300646544E0;-1.136175871E0
2.913879534E0;-8.185353279E-1;-1.283542752E0;-1.114185452E0
2.916328857E0;-7.989882231E-1;-1.265217423E0;-1.089751482E0
2.918777398E0;-7.769976854E-1;-1.243226886E0;-1.070204377E0
2.921225055E0;-7.525638342E-1;-1.222458124E0;-1.049435616E0
2.923673596E0;-7.366818190E-1;-1.204132676E0;-1.028666735E0
2.926122919E0;-7.134696245E-1;-1.185807228E0;-1.009119630E0
2.928571461E0;-6.939224601E-1;-1.169925213E0;-9.932376146E-1
2.931019117E0;-6.694886088E-1;-1.156486630E0;-9.724688530E-1
2.933467711E0;-6.499415040E-1;-1.146713018E0;-9.590302110E-1
2.935916982E0;-6.267293096E-1;-1.138161182E0;-9.480349422E-1
2.938365523E0;-6.047387719E-1;-1.127165914E0;-9.358180165E-1
2.940813180E0;-5.803049207E-1;-1.116170645E0;-9.297095537E-1
2.943261773E0;-5.558710098E-1;-1.102732062E0;-9.236010313E-1
2.945711044E0;-5.302154422E-1;-1.080741525E0;-9.138274789E-1
2.948159586E0;-5.021164417E-1;-1.062416077E0;-9.113841057E-1
2.950607242E0;-4.740174711E-1;-1.044090629E0;-9.089407325E-1
2.953055836E0;-4.434750974E-1;-1.026986957E0;-9.052756429E-1
2.955505159E0;-4.153761268E-1;-1.011104941E0;-9.028322697E-1
2.957953648E0;-3.799470067E-1;-9.964445829E-1;-8.991671801E-1
2.960401305E0;-3.481829464E-1;-9.842276573E-1;-8.967237473E-1
2.962849898E0;-3.213056624E-1;-9.720106721E-1;-8.918370008E-1
2.965299221E0;-2.907632887E-1;-9.634588361E-1;-8.857285380E-1
2.967747711E0;-2.602209449E-1;-9.475768209E-1;-8.783983588E-1
2.970195419E0;-2.296785712E-1;-9.292513728E-1;-8.698465228E-1
2.972643961E0;-1.991362125E-1;-9.072608948E-1;-8.576295376E-1
2.975093284E0;-1.710372269E-1;-8.816053271E-1;-8.478559852E-1
2.977541773E0;-1.404948682E-1;-8.522846103E-1;-8.356390595E-1
2.979989482E0;-1.111742035E-1;-8.229639530E-1;-8.197570443E-1
2.982438023E0;-8.551861346E-2;-7.924215794E-1;-8.038749695E-1
2.984887346E0;-5.741964281E-2;-7.594358325E-1;-7.843278646E-1
2.987335836E0;-3.054236248E-2;-7.325585485E-1;-7.660024762E-1
2.989783544E0;-2.443389036E-3;-7.044596076E-1;-7.488987446E-1
2.992232086E0;2.565558441E-2;-6.763606071E-1;-7.305732965E-1
2.994681409E0;4.886778072E-2;-6.470399499E-1;-7.122479081E-1
2.997129950E0;7.452336699E-2;-6.189410090E-1;-6.914790869E-1
2.999577607E0;9.773556143E-2;-5.859552622E-1;-6.670452356E-1
3.002026148E0;1.148392856E-1;-5.541911721E-1;-6.438329816E-1
3.004475471E0;1.331647038E-1;-5.224271417E-1;-6.181774139E-1
3.006924013E0;1.453816444E-1;-5.004366040E-1;-5.937435627E-1
3.009371669E0;1.575985998E-1;-4.808894992E-1;-5.656445622E-1
3.011820211E0;1.661504507E-1;-4.662291706E-1;-5.387672782E-1
3.014269534E0;1.759240031E-1;-4.588989913E-1;-5.106683373E-1
3.016718075E0;1.820324808E-1;-4.588989913E-1;-4.837910235E-1
3.019165732E0;1.905843467E-1;-4.686725736E-1;-4.569137394E-1
3.021614325E0;1.930277348E-1;-4.857762754E-1;-4.275930822E-1
3.024063596E0;2.015796006E-1;-5.077667832E-1;-4.019374847E-1
3.026512138E0;2.125748396E-1;-5.358657837E-1;-3.738385141E-1
3.028959794E0;2.272351831E-1;-5.688515306E-1;-3.469612300E-1
3.031408388E0;2.406738251E-1;-6.067240238E-1;-3.176405728E-1
3.033857711E0;2.602209449E-1;-6.458182931E-1;-2.895416021E-1
3.036306200E0;2.797680497E-1;-6.946860552E-1;-2.626643181E-1
3.038753857E0;3.017585576E-1;-7.472189069E-1;-2.345653474E-1
3.041202450E0;3.261924386E-1;-7.960866690E-1;-2.040229887E-1
3.043651773E0;3.542914093E-1;-8.473978639E-1;-1.783674061E-1
3.046100263E0;3.836120665E-1;-8.974873424E-1;-1.490467340E-1
3.048547919E0;4.129327536E-1;-9.451334476E-1;-1.221694499E-1
3.050996513E0;4.434750974E-1;-9.878927469E-1;-9.773556143E-2
3.053445836E0;4.752391577E-1;-1.029430389E0;-7.085828483E-2
3.055894325E0;5.070032477E-1;-1.063637733E0;-4.642439261E-2
3.058342034E0;5.424323678E-1;-1.094180107E0;-1.588202827E-2
3.060790575E0;5.741963983E-1;-1.117392302E0;1.099525020E-2
3.063239898E0;6.108472347E-1;-1.134496093E0;3.909422457E-2
3.065688388E0;6.487197876E-1;-1.147934675E0;6.474980712E-2
3.068136096E0;6.853706241E-1;-1.156486630E0;9.407047927E-2
3.070584638E0;7.256865501E-1;-1.160151601E0;1.221694499E-1
3.073033961E0;7.623373866E-1;-1.163816690E0;1.514901221E-1
3.075482503E0;8.014315963E-1;-1.166260123E0;1.844758689E-1
3.077930159E0;8.380824327E-1;-1.173590302E0;2.137965411E-1
3.080378700E0;8.747332692E-1;-1.179698825E0;2.443388999E-1
3.082828023E0;9.138274789E-1;-1.184585571E0;2.736595869E-1
3.085276565E0;9.492566586E-1;-1.190693974E0;3.017585576E-1
3.087724221E0;9.834640622E-1;-1.195580840E0;3.286358118E-1
3.090172763E0;1.020114899E0;-1.200467587E0;3.579564989E-1
3.092622086E0;1.051878929E0;-1.205354333E0;3.848337829E-1
3.095070628E0;1.084864736E0;-1.211462855E0;4.117110670E-1
3.097518284E0;1.115407109E0;-1.217571259E0;4.373666346E-1
3.099966878E0;1.143506050E0;-1.223679781E0;4.605788291E-1
3.102416148E0;1.167939901E0;-1.234675050E0;4.801259339E-1
3.104864690E0;1.189930439E0;-1.249335408E0;4.996730685E-1
3.107312346E0;1.210699320E0;-1.266439080E0;5.179984570E-1
3.109760940E0;1.226581335E0;-1.283542752E0;5.363239050E-1
3.112210263E0;1.236354828E0;-1.306754947E0;5.473191738E-1
3.114658753E0;1.242463350E0;-1.327523828E0;5.595360994E-1
3.117106409E0;1.246128440E0;-1.344627500E0;5.693096519E-1
3.119555003E0;1.244906664E0;-1.361731291E0;5.790832043E-1
3.122004325E0;1.237576604E0;-1.378834963E0;5.888567567E-1
3.124452815E0;1.225359559E0;-1.393495321E0;5.937435627E-1
3.126900523E0;1.211920977E0;-1.400825500E0;5.986303091E-1
3.129349065E0;1.191152096E0;-1.408155680E0;5.974085927E-1
3.131798388E0;1.164274931E0;-1.415485859E0;5.961869359E-1
3.134246878E0;1.128845692E0;-1.425259352E0;5.913001299E-1
3.136694586E0;1.088529825E0;-1.426481009E0;5.766398311E-1
3.139143128E0;1.048213840E0;-1.421594262E0;5.583143830E-1
3.141592450E0;9.993461370E-1;-1.403268814E0;5.375455618E-1
3.144040992E0;9.492566586E-1;-1.375169873E0;5.118899941E-1
3.146488648E0;8.942803741E-1;-1.339740753E0;4.801259339E-1
3.148937190E0;8.356390595E-1;-1.285986185E0;4.422534108E-1
3.151386513E0;7.806627750E-1;-1.215127945E0;4.007157981E-1
3.153835055E0;7.244648337E-1;-1.125944257E0;3.542914093E-1
3.156282711E0;6.731536984E-1;-1.023321867E0;3.042019308E-1
3.158731253E0;6.218425035E-1;-9.097042680E-1;2.480039895E-1
3.161180575E0;5.729747415E-1;-7.863131166E-1;1.918060333E-1
3.163629117E0;5.265503526E-1;-6.604785919E-1;1.343863904E-1
3.166076773E0;4.813476503E-1;-5.358657837E-1;7.696675509E-2
3.168525367E0;4.337015450E-1;-4.124746025E-1;2.321219631E-2
3.170974638E0;3.836120665E-1;-2.951919436E-1;-3.420744836E-2
3.173423180E0;3.323009014E-1;-1.815743446E-1;-8.796200156E-2
3.175870836E0;2.724378705E-1;-8.139539510E-2;-1.466033459E-1
3.178319430E0;2.137965411E-1;1.145338640E-2;-2.089097649E-1
3.180768753E0;1.490467340E-1;9.086353332E-2;-2.736595869E-1
3.183217242E0;8.796200156E-2;1.580567211E-1;-3.335226178E-1
3.185664898E0;2.932066843E-2;2.130329758E-1;-3.933856487E-1
3.188113492E0;-2.932066843E-2;2.496838123E-1;-4.483618736E-1
3.190562815E0;-8.307522535E-2;2.765611112E-1;-4.984513521E-1
3.193011305E0;-1.331647038E-1;2.924431264E-1;-5.399889946E-1
3.195458961E0;-1.783674061E-1;2.985515893E-1;-5.754181147E-1
3.197907555E0;-2.186833173E-1;2.948864996E-1;-5.986303091E-1
3.200356878E0;-2.553341687E-1;2.863346636E-1;-6.157340407E-1
3.202805367E0;-2.858765125E-1;2.704526186E-1;-6.206207871E-1
3.205253075E0;-3.127537966E-1;2.460187376E-1;-6.218425035E-1
3.207701617E0;-3.359659910E-1;2.105895877E-1;-6.157340407E-1
3.210150940E0;-3.555130959E-1;1.727170646E-1;-6.022953987E-1
3.212599482E0;-3.713951409E-1;1.226275861E-1;-5.851916671E-1
3.215047138E0;-3.860554695E-1;6.398624927E-2;-5.632011890E-1
3.217495680E0;-3.884988427E-1;-2.153236605E-2;-5.228852630E-1
3.219945003E0;-3.860554695E-1;-1.375933439E-1;-4.801259339E-1
3.222393544E0;-3.848337829E-1;-2.389939874E-1;-4.434750974E-1
3.224841200E0;-3.811686933E-1;-3.184041381E-1;-4.043808877E-1
3.227289794E0;-3.689517379E-1;-3.831539452E-1;-3.665083647E-1
3.229739065E0;-3.494046330E-1;-4.320217371E-1;-3.310792148E-1
3.232187607E0;-3.200839758E-1;-4.711159468E-1;-2.968717813E-1
3.234635263E0;-2.858765125E-1;-5.065450668E-1;-2.651077211E-1
3.237083857E0;-2.443388999E-1;-5.334223509E-1;-2.357870489E-1
3.239533180E0;-1.991362125E-1;-5.639647245E-1;-2.113531530E-1
3.241981669E0;-1.478250325E-1;-5.969504714E-1;-1.820324808E-1
3.244429325E0;-9.895725548E-2;-6.421532035E-1;-1.502684206E-1
3.246877919E0;-4.886778072E-2;-6.922426820E-1;-1.136175916E-1
3.249327242E0;-1.221694518E-3;-7.447755337E-1;-7.452336699E-2
3.251775732E0;3.909422457E-2;-7.863131166E-1;-3.665083647E-2
3.254223388E0;7.452336699E-2;-8.119687438E-1;-1.221694518E-3
3.256671982E0;9.895725548E-2;-8.095253110E-1;2.321219631E-2
3.259121305E0;1.148392856E-1;-7.716528177E-1;3.909422457E-2
3.261569794E0;1.307213157E-1;-6.897992492E-1;4.642439261E-2
3.264017503E0;1.404948682E-1;-5.700731874E-1;4.642439261E-2
3.266466044E0;1.527118087E-1;-4.149180055E-1;3.909422457E-2
3.268915367E0;1.661504507E-1;-2.414373755E-1;2.565558441E-2
3.271363909E0;1.808107942E-1;-5.940489471E-2;4.886778072E-3
3.273811565E0;1.905843467E-1;1.128540337E-1;-1.832541823E-2
3.276260107E0;1.893626451E-1;2.606790662E-1;-5.375456065E-2
3.278709430E0;1.722589284E-1;3.767400384E-1;-9.773556143E-2
3.281157971E0;1.453816444E-1;4.647020400E-1;-1.514901221E-1
3.283605628E0;1.014006436E-1;5.306735635E-1;-2.162399292E-1
3.286054169E0;5.008947477E-2;5.856497884E-1;-2.907632887E-1
3.288503492E0;-7.330167107E-3;6.357392669E-1;-3.750602305E-1
3.290952034E0;-5.375456065E-2;6.956022978E-1;-4.654656053E-1
3.293399690E0;-8.674030751E-2;7.640172243E-1;-5.522059202E-1
3.295848284E0;-9.529217333E-2;8.470924497E-1;-6.377245188E-1
3.298297555E0;-6.963659078E-2;9.484930634E-1;-7.146912813E-1
3.300746096E0;-1.343864016E-2;1.062110662E0;-7.782194018E-1
3.303193753E0;6.963659078E-2;1.181836724E0;-8.270871639E-1
3.305642346E0;1.673721522E-1;1.304006219E0;-8.564078808E-1
3.308091669E0;2.736595869E-1;1.413958669E0;-8.674030900E-1
3.310540159E0;3.872771561E-1;1.495812178E0;-8.674030900E-1
3.312987815E0;4.947862923E-1;1.550788522E0;-8.551861644E-1
3.315436409E0;5.974085927E-1;1.567892194E0;-8.368607163E-1
3.317885732E0;6.902574301E-1;1.544679999E0;-8.112051487E-1
3.320334221E0;7.721109390E-1;1.483595252E0;-7.818844914E-1
3.322781930E0;8.405258060E-1;1.389524817E0;-7.427902818E-1
3.325230471E0;8.955020905E-1;1.258803487E0;-6.927008033E-1
3.327679794E0;9.297095537E-1;1.095096469E0;-6.291726828E-1
3.330128284E0;9.480349422E-1;9.020686746E-1;-5.546492934E-1
3.332575992E0;9.504783154E-1;6.919372082E-1;-4.630222321E-1
3.335024534E0;9.345963001E-1;4.683671296E-1;-3.603998721E-1
3.337473857E0;8.967237473E-1;2.447970361E-1;-2.455606014E-1
3.339922398E0;8.637380004E-1;5.299099907E-2;-1.185043678E-1
3.342370055E0;8.344173431E-1;-9.849911928E-2;1.588202827E-2
3.344818596E0;8.173136115E-1;-1.950129867E-1;1.600419879E-1
3.347267919E0;7.977665067E-1;-2.426590770E-1;3.005368412E-1
3.349716461E0;7.928797603E-1;-2.548760176E-1;4.324798584E-1
3.352164117E0;7.916580439E-1;-2.365505993E-1;5.558710098E-1
3.354612711E0;7.892146707E-1;-1.998997629E-1;6.719319820E-1
3.357061982E0;7.843278646E-1;-1.546970755E-1;7.806627750E-1
3.359510523E0;7.806627750E-1;-1.046075895E-1;8.869501948E-1
3.361958180E0;7.806627750E-1;-4.840964451E-2;9.895725846E-1
3.364406773E0;7.757760286E-1;1.145338640E-2;1.089751482E0
3.366856096E0;7.721109390E-1;6.642963737E-2;1.183822036E0
3.369304586E0;7.684458494E-1;1.214058921E-1;1.268118858E0
3.371752242E0;7.598940134E-1;1.702736765E-1;1.345085621E0
3.374200836E0;7.513421178E-1;2.240282297E-1;1.413500547E0
3.376650159E0;7.379034758E-1;2.838912606E-1;1.475806952E0
3.379098648E0;7.183563709E-1;3.376458287E-1;1.524674773E0
3.381546357E0;7.049177289E-1;3.779617548E-1;1.556438804E0
3.383994898E0;6.939224601E-1;4.060607255E-1;1.579650998E0
3.386444221E0;6.792621613E-1;4.133908749E-1;1.590646267E0
3.388892763E0;6.658235192E-1;3.926220834E-1;1.582094431E0
3.391340419E0;6.658235192E-1;3.510844707E-1;1.557660460E0
3.393788961E0;6.719319820E-1;2.997733057E-1;1.517344594E0
3.396238284E0;6.902574301E-1;2.472404242E-1;1.458703279E0
3.398686825E0;7.195780873E-1;1.995943487E-1;1.392731786E0
3.401134482E0;7.550072074E-1;1.653869003E-1;1.314543247E0
3.403583023E0;7.965448499E-1;1.556133330E-1;1.227802992E0
3.406032346E0;8.405258060E-1;1.690519750E-1;1.142284393E0
3.408480888E0;8.845068216E-1;2.057028115E-1;1.056765795E0
3.410928544E0;9.297095537E-1;2.631224692E-1;9.761339426E-1
3.413377138E0;9.724688530E-1;3.315373361E-1;9.040539265E-1
3.415826409E0;1.015228152E0;4.036173224E-1;8.380824327E-1
3.418274950E0;1.050657272E0;4.610369802E-1;7.806627750E-1
3.420722607E0;1.090973258E0;5.086830258E-1;7.305732965E-1
3.423171200E0;1.126402378E0;5.380037427E-1;6.853706241E-1
3.425620523E0;1.153279662E0;5.489989519E-1;6.474980712E-1
3.428069013E0;1.177713513E0;5.441122055E-1;6.145123243E-1
3.430516669E0;1.197260618E0;5.294518471E-1;5.864133835E-1
3.432965263E0;1.214364409E0;5.013529062E-1;5.632011890E-1
3.435414586E0;1.225359559E0;4.647020400E-1;5.436540842E-1
3.437863075E0;1.235133171E0;4.207210541E-1;5.277720094E-1
3.440310784E0;1.242463350E0;3.742966652E-1;5.216635466E-1
3.442759325E0;1.249793530E0;3.278722763E-1;5.155550838E-1
3.445208648E0;1.254680276E0;2.814478874E-1;5.179984570E-1
3.447657190E0;1.260788798E0;2.374668717E-1;5.228852630E-1
3.450104846E0;1.264453769E0;1.995943487E-1;5.302154422E-1
3.452553388E0;1.269340634E0;1.653869003E-1;5.399889946E-1
3.455002711E0;1.277892470E0;1.397313178E-1;5.485408306E-1
3.457451253E0;1.286444306E0;1.226275861E-1;5.583143830E-1
3.459898909E0;1.297439575E0;1.116323397E-1;5.656445622E-1
3.462347503E0;1.307213187E0;1.043021679E-1;5.693096519E-1
3.464796773E0;1.318208337E0;9.697200358E-2;5.741963983E-1
3.467245315E0;1.331647038E0;8.842013776E-2;5.766398311E-1
3.469692971E0;1.345085621E0;8.108997345E-2;5.766398311E-1
3.472141565E0;1.353637576E0;7.742489129E-2;5.766398311E-1
3.474590888E0;1.362189412E0;7.742489129E-2;5.778614879E-1
3.477039378E0;1.371962905E0;8.108997345E-2;5.754181147E-1
3.479487034E0;1.382958174E0;9.086353332E-2;5.754181147E-1
3.481935628E0;1.390288353E0;1.006370857E-1;5.741963983E-1
3.484384950E0;1.400061965E0;1.140757278E-1;5.766398311E-1
3.486833440E0;1.409835458E0;1.238492802E-1;5.778614879E-1
3.489281148E0;1.417165637E0;1.446180940E-1;5.827482939E-1
3.491729690E0;1.422052383E0;1.800472289E-1;5.913001299E-1
3.494179013E0;1.422052383E0;2.105895877E-1;6.010736823E-1
3.496627555E0;1.420830727E0;2.374668717E-1;6.096255779E-1
3.499075211E0;1.415943980E0;2.631224692E-1;6.193991303E-1
3.501523753E0;1.411057115E0;2.851129472E-1;6.328377724E-1
3.503973075E0;1.403727055E0;3.022166789E-1;6.523848772E-1
3.506421617E0;1.390288353E0;3.132119179E-1;6.743753552E-1
3.508869273E0;1.375627995E0;3.193204105E-1;6.975875497E-1
3.511317867E0;1.357302666E0;3.229855001E-1;7.293516397E-1
3.513767138E0;1.341420531E0;3.266505599E-1;7.598940134E-1
3.516215680E0;1.326760292E0;3.290939629E-1;7.904363275E-1
3.518663336E0;1.308434844E0;3.327590525E-1;8.209787011E-1
3.521111930E0;1.288887739E0;3.400892019E-1;8.515210748E-1
3.523561253E0;1.265675545E0;3.498627543E-1;8.832851648E-1
3.526009742E0;1.240019917E0;3.559712470E-1;9.113841057E-1
3.528457398E0;1.207034230E0;3.633013964E-1;9.419264793E-1
3.530905992E0;1.176491857E0;3.730749488E-1;9.700254202E-1
3.533355315E0;1.144727707E0;3.865135908E-1;9.969027042E-1
3.535803805E0;1.116628766E0;4.060607255E-1;1.023779988E0
3.538251513E0;1.083643079E0;4.268295169E-1;1.045770526E0
3.540700055E0;1.061652541E0;4.402681589E-1;1.065317631E0
3.543149378E0;1.044548869E0;4.463766217E-1;1.081199646E0
3.545597867E0;1.031110168E0;4.695888162E-1;1.099525094E0
3.548045575E0;1.016449809E0;4.891359508E-1;1.115407109E0
3.550494117E0;1.005454540E0;5.147915483E-1;1.126402378E0
3.552943440E0;1.001789451E0;5.514423847E-1;1.134954214E0
3.555391982E0;9.920159578E-1;5.917583108E-1;1.142284393E0
3.557839638E0;9.883508682E-1;6.271874309E-1;1.147171140E0
3.560288180E0;9.822424054E-1;6.369609833E-1;1.147171140E0
3.562737503E0;9.749122262E-1;6.332958937E-1;1.142284393E0
3.565186044E0;9.651386738E-1;6.015318632E-1;1.136175871E0
3.567633700E0;9.504783154E-1;5.599942207E-1;1.130067468E0
3.570082294E0;9.358180165E-1;5.184566379E-1;1.121515512E0
3.572531617E0;9.199360013E-1;4.842491746E-1;1.112963676E0
3.574980107E0;8.991671801E-1;4.585935771E-1;1.105633497E0
3.577427763E0;8.796200752E-1;4.402681589E-1;1.098303318E0
3.579876357E0;8.600729704E-1;4.439332485E-1;1.086086392E0
3.582325680E0;8.429692388E-1;4.537068009E-1;1.070204377E0
3.584774169E0;8.234221339E-1;4.732539058E-1;1.053100705E0
3.587221878E0;8.075400591E-1;4.915793240E-1;1.033553600E0
3.589670419E0;7.941014171E-1;5.172349215E-1;1.018893242E0
3.592119742E0;7.806627750E-1;5.392253995E-1;1.007897973E0
3.594568284E0;7.672241330E-1;5.612159371E-1;9.944593310E-1
3.597015940E0;7.513421178E-1;5.770979524E-1;9.785773158E-1
3.599464482E0;7.317950130E-1;5.942016840E-1;9.639169574E-1
3.601913805E0;7.159129977E-1;6.186355352E-1;9.480349422E-1
3.604362346E0;6.988092661E-1;6.442911625E-1;9.345963001E-1
3.606810003E0;6.865923405E-1;6.748335361E-1;9.236010313E-1
3.609258596E0;6.731536984E-1;7.163711190E-1;9.138274789E-1
3.611707867E0;6.694886088E-1;7.566870451E-1;9.040539265E-1
3.614156409E0;6.609367132E-1;7.884510756E-1;8.930587173E-1
3.616604065E0;6.511631608E-1;8.128849864E-1;8.783983588E-1
3.619052659E0;6.438329816E-1;8.336538076E-1;8.625163436E-1
3.621501982E0;6.426113248E-1;8.483141065E-1;8.478559852E-1
3.623950471E0;6.426113248E-1;8.556442857E-1;8.331956863E-1
3.626398128E0;6.450546980E-1;8.678612709E-1;8.234221339E-1
3.628846721E0;6.536065936E-1;8.776348233E-1;8.112051487E-1
3.631296044E0;6.572716236E-1;8.837432861E-1;7.977665067E-1
3.633744534E0;6.633801460E-1;8.837432861E-1;7.843278646E-1
3.636192242E0;6.658235192E-1;8.825215697E-1;7.708892226E-1
3.638640784E0;6.646018028E-1;8.776348233E-1;7.550072074E-1
3.641090107E0;6.682668924E-1;8.837432861E-1;7.452336550E-1
3.643538648E0;6.731536984E-1;8.898517489E-1;7.354601026E-1
3.645986305E0;6.743753552E-1;8.984035850E-1;7.244648337E-1
3.648434846E0;6.694886088E-1;9.045121074E-1;7.110261917E-1
3.650884169E0;6.633801460E-1;9.142856598E-1;7.000309825E-1
3.653332711E0;6.523848772E-1;9.252808690E-1;6.890357137E-1
3.655780367E0;6.401679516E-1;9.423846006E-1;6.792621613E-1
3.658228961E0;6.242858768E-1;9.631534219E-1;6.682668924E-1
3.660678232E0;6.035171151E-1;9.802571535E-1;6.572716236E-1
3.663126773E0;5.803049207E-1;9.949174523E-1;6.474980712E-1
3.665574430E0;5.546492934E-1;1.005912781E0;6.377245188E-1
3.668023023E0;5.314370990E-1;1.016907930E0;6.340594292E-1
3.670472346E0;5.045598149E-1;1.021794796E0;6.291726828E-1
3.672920836E0;4.764608741E-1;1.023016453E0;6.206207871E-1
3.675368492E0;4.471401870E-1;1.021794796E0;6.145123243E-1
3.677817086E0;4.214846194E-1;1.019351363E0;6.120689511E-1
3.680266409E0;3.958290219E-1;1.019351363E0;6.096255779E-1
3.682714898E0;3.689517379E-1;1.012021184E0;6.071822047E-1
3.685162607E0;3.457395434E-1;9.961391687E-1;6.035171151E-1
3.687611148E0;3.200839758E-1;9.827005267E-1;5.961869359E-1
3.690060471E0;2.968717813E-1;9.692618847E-1;5.900784731E-1
3.692509013E0;2.748812735E-1;9.594883323E-1;5.864133835E-1
3.694956669E0;2.492256761E-1;9.460496902E-1;5.851916671E-1
3.697405263E0;2.199050188E-1;9.240592122E-1;5.827482939E-1
3.699854534E0;1.856975704E-1;8.984035850E-1;5.790832043E-1
3.702303075E0;1.539335102E-1;8.812998533E-1;5.741963983E-1
3.704750732E0;1.172826737E-1;8.593093753E-1;5.644228458E-1
3.707199325E0;7.818844914E-2;8.458707333E-1;5.522059202E-1
3.709648648E0;4.520269856E-2;8.397622705E-1;5.351021886E-1
3.712097138E0;8.551862091E-3;8.336538076E-1;5.143333673E-1
3.714544794E0;-2.687728032E-2;8.251019120E-1;4.837910235E-1
3.716993388E0;-6.108472496E-2;8.165500760E-1;4.532486796E-1
3.719442711E0;-9.040539712E-2;7.994463444E-1;4.202629030E-1
3.721891200E0;-1.197260618E-1;7.750124335E-1;3.860554695E-1
3.724338857E0;-1.417165697E-1;7.383615971E-1;3.518480062E-1
3.726787450E0;-1.588202864E-1;6.992673874E-1;3.176405728E-1
3.729236773E0;-1.722589284E-1;6.442911625E-1;2.834331393E-1
3.731685263E0;-1.844758689E-1;5.783196688E-1;2.467822880E-1
3.734132971E0;-1.930277348E-1;5.001311898E-1;2.089097649E-1
3.736581513E0;-1.991362125E-1;4.194993675E-1;1.747023165E-1
3.739030836E0;-2.040229887E-1;3.352024257E-1;1.392731816E-1
3.741479378E0;-2.089097649E-1;2.496838123E-1;1.050657257E-1
3.743927034E0;-2.150182426E-1;1.714953631E-1;7.330167294E-2
3.746375628E0;-2.174616307E-1;1.091889441E-1;4.153761268E-2
3.748824898E0;-2.272351831E-1;5.054761097E-2;1.221694518E-2
3.751273440E0;-2.382304370E-1;4.123218823E-3;-1.832541823E-2
3.753721096E0;-2.492256761E-1;-2.764083818E-2;-4.764608666E-2
3.756169690E0;-2.675510943E-1;-4.840964451E-2;-7.574506104E-2
3.758619013E0;-2.919849753E-1;-5.573981255E-2;-1.050657257E-1
3.761067503E0;-3.176405728E-1;-4.963133857E-2;-1.319430023E-1
3.763515159E0;-3.506263196E-1;-3.497100621E-2;-1.624853760E-1
3.765963753E0;-3.921639323E-1;-1.175880991E-2;-1.918060333E-1
3.768413075E0;-4.410317242E-1;1.145338640E-2;-2.223484069E-1
3.770861565E0;-4.947862923E-1;3.710897267E-2;-2.528907657E-1
3.773309273E0;-5.558710098E-1;5.543438718E-2;-2.858765125E-1
3.775757815E0;-6.206207871E-1;7.131642103E-2;-3.188622594E-1
3.778207138E0;-6.902574301E-1;7.986827940E-2;-3.542914093E-1
3.780655680E0;-7.562289238E-1;7.742489129E-2;-3.909422457E-1
3.783103336E0;-8.234221339E-1;6.765133142E-2;-4.251496792E-1
3.785551878E0;-8.869501948E-1;5.054761097E-2;-4.642439187E-1
3.788001200E0;-9.443698525E-1;2.611372061E-2;-5.021164417E-1
3.790449742E0;-9.920159578E-1;-6.872031838E-3;-5.412106514E-1
3.792897398E0;-1.034775257E0;-3.008422814E-2;-5.778614879E-1
3.795345992E0;-1.075091124E0;-4.963133857E-2;-6.145123243E-1
3.797795315E0;-1.120293856E0;-5.818320066E-2;-6.536065936E-1
3.800243805E0;-1.169161677E0;-6.429167092E-2;-6.963658929E-1
3.802691461E0;-1.225359559E0;-6.062658876E-2;-7.391251922E-1
3.805140055E0;-1.292552829E0;-5.207473040E-2;-7.831062078E-1
3.807589378E0;-1.373184681E0;-4.840964451E-2;-8.258655071E-1
3.810037867E0;-1.466033459E0;-4.718795046E-2;-8.674030900E-1
3.812485575E0;-1.567434072E0;-4.230117425E-2;-9.077190161E-1
3.814934117E0;-1.679829955E0;-3.741439432E-2;-9.468132257E-1
3.817383440E0;-1.800777674E0;-3.741439432E-2;-9.871291518E-1
3.819831982E0;-1.927986622E0;-3.252761811E-2;-1.025001645E0
3.822279638E0;-2.055042982E0;-3.374931216E-2;-1.065317631E0
3.824728232E0;-2.178434134E0;-3.497100621E-2;-1.104411840E0
3.827177503E0;-2.294495106E0;-3.619270027E-2;-1.147171140E0
3.829626044E0;-2.403225899E0;-4.230117425E-2;-1.188708782E0
3.832073700E0;-2.494853020E0;-5.696150661E-2;-1.231468081E0
3.834522294E0;-2.570597887E0;-8.017370105E-2;-1.273005724E0
3.836971617E0;-2.623130798E0;-1.082726792E-1;-1.313321590E0
3.839420107E0;-2.656116486E0;-1.473668963E-1;-1.351194143E0
3.841867763E0;-2.664668560E0;-1.852394342E-1;-1.384179831E0
3.844316357E0;-2.651229858E0;-2.157817930E-1;-1.414722204E0
3.846765680E0;-2.614578962E0;-2.451024652E-1;-1.441599488E0
3.849214169E0;-2.568154573E0;-2.707580328E-1;-1.470920205E0
3.851661878E0;-2.511956692E0;-2.866400778E-1;-1.503905892E0
3.854110419E0;-2.452093601E0;-2.976353168E-1;-1.541778445E0
3.856559742E0;-2.392230511E0;-2.976353168E-1;-1.583316088E0
3.859008284E0;-2.338475943E0;-2.964136302E-1;-1.628518820E0
3.861455940E0;-2.287164927E0;-2.878617644E-1;-1.671278119E0
3.863904482E0;-2.240740538E0;-2.756448388E-1;-1.709150672E0
3.866353805E0;-2.196759462E0;-2.670929730E-1;-1.739693046E0
3.868802346E0;-2.160108566E0;-2.573194206E-1;-1.755575061E0
3.871250003E0;-2.123457670E0;-2.560977042E-1;-1.760461807E0
3.873698596E0;-2.091693640E0;-2.499892414E-1;-1.753131628E0
3.876147867E0;-2.062373161E0;-2.499892414E-1;-1.736027956E0
3.878596409E0;-2.035495758E0;-2.451024652E-1;-1.715259075E0
3.881044065E0;-2.012283564E0;-2.304421216E-1;-1.692046881E0
3.883492659E0;-1.996401548E0;-2.060082406E-1;-1.666391373E0
3.885941982E0;-1.978076100E0;-1.766875684E-1;-1.641957402E0
3.888390471E0;-1.964637518E0;-1.388150454E-1;-1.619966984E0
3.890838180E0;-1.949977160E0;-9.239064902E-2;-1.596754789E0
3.893286721E0;-1.937760234E0;-4.352286831E-2;-1.571099162E0
3.895736044E0;-1.929208398E0;5.344913341E-3;-1.544221878E0
3.898184586E0;-1.919434786E0;5.543438718E-2;-1.516122937E0
3.900632242E0;-1.915769696E0;1.067455560E-1;-1.488023877E0
3.903080784E0;-1.912104607E0;1.519482583E-1;-1.456259847E0
3.905530107E0;-1.912104607E0;1.861557066E-1;-1.422052383E0
3.907978648E0;-1.913326383E0;2.081461996E-1;-1.389066696E0
3.910426305E0;-1.915769696E0;2.057028115E-1;-1.357302666E0
3.912874898E0;-1.918213129E0;1.885990947E-1;-1.327981949E0
3.915324169E0;-1.927986622E0;1.470614821E-1;-1.303548098E0
3.917772711E0;-1.936538577E0;8.842013776E-2;-1.286444306E0
3.920220367E0;-1.943868637E0;9.009997360E-3;-1.275449038E0
3.922668961E0;-1.947533727E0;-9.239064902E-2;-1.277892470E0
3.925118284E0;-1.948755503E0;-2.145601064E-1;-1.288887739E0
3.927566773E0;-1.947533727E0;-3.416163325E-1;-1.308434844E0
3.930014482E0;-1.945090413E0;-4.576773047E-1;-1.327981949E0
3.932463023E0;-1.946312070E0;-5.505260825E-1;-1.341420531E0
3.934912346E0;-1.948755503E0;-6.164975762E-1;-1.352415800E0
3.937360836E0;-1.952420592E0;-6.665870547E-1;-1.359745979E0
3.939808544E0;-1.954863906E0;-6.983511448E-1;-1.358524323E0
3.942257086E0;-1.953642249E0;-7.142331600E-1;-1.353637576E0
3.944706409E0;-1.946312070E0;-7.007945180E-1;-1.347529054E0
3.947154950E0;-1.932873487E0;-6.458182931E-1;-1.343863964E0
3.949602607E0;-1.904774427E0;-5.749599934E-1;-1.343863964E0
3.952051200E0;-1.866749167E0;-5.089884996E-1;-1.345085621E0
3.954500523E0;-1.825211644E0;-4.576773047E-1;-1.352415800E0
3.956949013E0;-1.780008912E0;-4.112529159E-1;-1.363411069E0
3.959396669E0;-1.739693046E0;-3.770454824E-1;-1.379293084E0
3.961845263E0;-1.699377060E0;-3.477247953E-1;-1.395175099E0
3.964294586E0;-1.655396104E0;-3.330644667E-1;-1.418387294E0
3.966743075E0;-1.611415029E0;-3.293993771E-1;-1.439156175E0
3.969190784E0;-1.569877505E0;-3.403946459E-1;-1.459924936E0
3.971639325E0;-1.524674773E0;-3.648285270E-1;-1.485580564E0
3.974088648E0;-1.480693698E0;-3.929274976E-1;-1.507570982E0
3.976537190E0;-1.440377831E0;-4.246915579E-1;-1.523453116E0
3.978984846E0;-1.398840189E0;-4.564556181E-1;-1.538113356E0
3.981433388E0;-1.358524323E0;-4.967715442E-1;-1.547886968E0
3.983882711E0;-1.310878277E0;-5.370874405E-1;-1.555217147E0
3.986331253E0;-1.266897202E0;-5.822901726E-1;-1.560103893E0
3.988778909E0;-1.225359559E0;-6.311579347E-1;-1.562547326E0
3.991227503E0;-1.187487125E0;-6.861341596E-1;-1.562547326E0
3.993676773E0;-1.144727707E0;-7.447755337E-1;-1.556438804E0
3.996125315E0;-1.105633497E0;-8.083036542E-1;-1.547886968E0
3.998572971E0;-1.070204377E0;-8.693883419E-1;-1.535670042E0
4.001021565E0;-1.034775257E0;-9.341381788E-1;-1.518566251E0
4.003470888E0;-1.003011227E0;-9.964445829E-1;-1.502684236E0
4.005919378E0;-9.736905098E-1;-1.052642584E0;-1.483137131E0
4.008367086E0;-9.492566586E-1;-1.107618809E0;-1.459924936E0
4.010815628E0;-9.248227477E-1;-1.156486630E0;-1.435491085E0
4.013264950E0;-9.064973593E-1;-1.198024154E0;-1.411057115E0
4.015713492E0;-8.893936276E-1;-1.224901438E0;-1.384179831E0
4.018161148E0;-8.686248064E-1;-1.244448543E0;-1.357302666E0
4.020609690E0;-8.527427912E-1;-1.257887244E0;-1.331647038E0
4.023059013E0;-8.356390595E-1;-1.267660737E0;-1.307213187E0
4.025507555E0;-8.173136115E-1;-1.271325827E0;-1.285222650E0
4.027955211E0;-7.977665067E-1;-1.266439080E0;-1.262010455E0
4.030403805E0;-7.794411182E-1;-1.254222155E0;-1.237576604E0
4.032853128E0;-7.574505806E-1;-1.238340139E0;-1.213142633E0
4.035301617E0;-7.391251922E-1;-1.224901438E0;-1.193595529E0
4.037749273E0;-7.159129977E-1;-1.210241079E0;-1.174048424E0
4.040197867E0;-6.951441765E-1;-1.194359064E0;-1.153279662E0
4.042647190E0;-6.719319820E-1;-1.177255392E0;-1.133732557E0
4.045095680E0;-6.523848772E-1;-1.161373377E0;-1.115407109E0
4.047543388E0;-6.303943992E-1;-1.140604496E0;-1.098303318E0
4.049991930E0;-6.071822047E-1;-1.118614078E0;-1.079977989E0
4.052441253E0;-5.864133835E-1;-1.089293361E0;-1.061652541E0
4.054889794E0;-5.595360994E-1;-1.061194420E0;-1.043327093E0
4.057337450E0;-5.338805318E-1;-1.034317136E0;-1.026223421E0
4.059786044E0;-5.070032477E-1;-1.007439852E0;-1.011563063E0
4.062235315E0;-4.764608741E-1;-9.781191945E-1;-9.920159578E-1
4.064683857E0;-4.471401870E-1;-9.512419105E-1;-9.712471366E-1
4.067131513E0;-4.153761268E-1;-9.280297160E-1;-9.480349422E-1
4.069580107E0;-3.848337829E-1;-9.097042680E-1;-9.284878373E-1
4.072029430E0;-3.506263196E-1;-8.962656260E-1;-9.052756429E-1
4.074477919E0;-3.188622594E-1;-8.864920735E-1;-8.820634484E-1
4.076925575E0;-2.846548259E-1;-8.718317747E-1;-8.588512540E-1
4.079374169E0;-2.455606014E-1;-8.596147895E-1;-8.331956863E-1
4.081823492E0;-2.089097649E-1;-8.400676847E-1;-8.026533127E-1
4.084271982E0;-1.734806150E-1;-8.192988634E-1;-7.721109390E-1
4.086719690E0;-1.380514801E-1;-7.973083854E-1;-7.415685654E-1
4.089168232E0;-1.001789495E-1;-7.667660117E-1;-7.061394453E-1
4.091617555E0;-6.474980712E-2;-7.386670709E-1;-6.743753552E-1
4.094066096E0;-2.687728032E-2;-7.069029808E-1;-6.389462352E-1
4.096513753E0;6.108472589E-3;-6.726955175E-1;-6.047387719E-1
4.098962346E0;4.275930673E-2;-6.323796511E-1;-5.644228458E-1
4.101411617E0;7.696675509E-2;-5.957288146E-1;-5.241069198E-1
4.103860159E0;1.111742035E-1;-5.566345453E-1;-4.850127101E-1
4.106307815E0;1.417165697E-1;-5.138752460E-1;-4.410317242E-1
4.108756409E0;1.734806150E-1;-4.711159468E-1;-3.982724249E-1
4.111205732E0;2.040229887E-1;-4.308000207E-1;-3.555130959E-1
4.113654221E0;2.370087355E-1;-3.904841244E-1;-3.127537966E-1
4.116101930E0;2.687727809E-1;-3.526115716E-1;-2.699944973E-1
4.118550471E0;3.017585576E-1;-3.208475113E-1;-2.260134816E-1
4.120999794E0;3.335226178E-1;-2.927485406E-1;-1.820324808E-1
4.123448336E0;3.640649617E-1;-2.707580328E-1;-1.392731816E-1
4.125895992E0;3.982724249E-1;-2.560977042E-1;-9.895725548E-2
4.128344586E0;4.300364852E-1;-2.499892414E-1;-5.864133686E-2
4.130793857E0;4.618005157E-1;-2.451024652E-1;-1.832541823E-2
4.133242398E0;4.996730685E-1;-2.463241518E-1;1.954711229E-2
4.135690055E0;5.351021886E-1;-2.560977042E-1;5.741964281E-2
4.138138648E0;5.717530251E-1;-2.670929730E-1;9.651386738E-2
4.140587971E0;6.108472347E-1;-2.878617644E-1;1.343863904E-1
4.143036461E0;6.499415040E-1;-3.086305857E-1;1.734806150E-1
4.145484117E0;6.939224601E-1;-3.330644667E-1;2.125748396E-1
4.147932711E0;7.391251922E-1;-3.574983478E-1;2.516690791E-1
4.150382034E0;7.892146707E-1;-3.819322586E-1;2.919849753E-1
4.152830575E0;8.344173431E-1;-4.063661397E-1;3.298575282E-1
4.155278232E0;8.869501948E-1;-4.295783341E-1;3.689517379E-1
4.157726773E0;9.394831061E-1;-4.503471553E-1;4.080459774E-1
4.160176096E0;9.932376146E-1;-4.637857676E-1;4.459185004E-1
4.162624638E0;1.048213840E0;-4.796678126E-1;4.862344265E-1
4.165072294E0;1.108076930E0;-4.906630516E-1;5.253286362E-1
4.167520888E0;1.166718245E0;-4.955498278E-1;5.632011890E-1
4.169970159E0;1.224137902E0;-4.955498278E-1;5.974085927E-1
4.172418700E0;1.286444306E0;-4.857762754E-1;6.328377724E-1
4.174866357E0;1.353637576E0;-4.784461260E-1;6.658235192E-1
4.177314950E0;1.417165637E0;-4.662291706E-1;6.988092661E-1
4.179764273E0;1.480693698E0;-4.552339315E-1;7.256865501E-1
4.182212763E0;1.549108624E0;-4.393518865E-1;7.525638342E-1
4.184660471E0;1.613858461E0;-4.246915579E-1;7.757760286E-1
4.187109013E0;1.681051612E0;-4.088095427E-1;8.002098799E-1
4.189558336E0;1.745801449E0;-3.990359604E-1;8.185353279E-1
4.192006878E0;1.810551286E0;-3.953709006E-1;8.356390595E-1
4.194454534E0;1.867970943E0;-3.978142738E-1;8.502993584E-1
4.196903075E0;1.919282079E0;-4.124746025E-1;8.612946272E-1
4.199352398E0;1.955932975E0;-4.393518865E-1;8.747332692E-1
4.201800940E0;1.979145169E0;-4.772244096E-1;8.869501948E-1
4.204248596E0;1.988918662E0;-5.285356045E-1;9.016105533E-1
4.206697190E0;1.984031916E0;-5.871769190E-1;9.199360013E-1
4.209146513E0;1.965706468E0;-6.580352187E-1;9.407047629E-1
4.211595003E0;1.936385870E0;-7.362236381E-1;9.626953006E-1
4.214042659E0;1.891183138E0;-8.205205798E-1;9.822424054E-1
4.216491253E0;1.830098391E0;-9.158127308E-1;9.993461370E-1
4.218940575E0;1.766570330E0;-1.020878434E0;1.011563063E0
4.221389065E0;1.683495045E0;-1.135717750E0;1.011563063E0
4.223836773E0;1.588202834E0;-1.256665468E0;1.005454540E0
4.226285315E0;1.479472041E0;-1.381278396E0;9.859074950E-1
4.228734638E0;1.363411069E0;-1.504669547E0;9.541434050E-1
4.231183180E0;1.242463350E0;-1.614621997E0;9.126058221E-1
4.233630836E0;1.117850542E0;-1.709914207E0;8.625163436E-1
4.236079430E0;9.969027042E-1;-1.785659194E0;8.014315963E-1
4.238528700E0;8.808417320E-1;-1.838192105E0;7.244648337E-1
4.240977242E0;7.769976854E-1;-1.850409031E0;6.377245188E-1
4.243424898E0;6.902574301E-1;-1.810093164E0;5.473191738E-1
4.245873492E0;6.071822047E-1;-1.733126402E0;4.520269632E-1
4.248322815E0;5.241069198E-1;-1.617065430E0;3.567348123E-1
4.250771305E0;4.312581718E-1;-1.469240427E0;2.638860047E-1
4.253219013E0;3.310792148E-1;-1.304311633E0;1.808107942E-1
4.255667555E0;2.162399292E-1;-1.139382839E0;1.001789495E-1
4.258116878E0;7.207997888E-2;-9.744541049E-1;9.773556143E-3
4.260565419E0;-8.918370306E-2;-8.205205798E-1;-8.918370306E-2
4.263013075E0;-2.675510943E-1;-6.726955175E-1;-2.003578991E-1
4.265461617E0;-4.446968138E-1;-5.334223509E-1;-3.188622594E-1
4.267910940E0;-6.145123243E-1;-3.990359604E-1;-4.434750974E-1
4.270359482E0;-7.672241330E-1;-2.622061968E-1;-5.680879354E-1
4.272807138E0;-8.979454637E-1;-1.058292910E-1;-6.988092661E-1
4.275255732E0;-1.003011227E0;6.520794332E-2;-8.258655071E-1
4.277705055E0;-1.075091124E0;2.460187376E-1;-9.358180165E-1
4.280153544E0;-1.120293856E0;4.207210541E-1;-1.026223421E0
4.282601253E0;-1.134954214E0;5.709894896E-1;-1.092194915E0
4.285049794E0;-1.126402378E0;6.943806410E-1;-1.137397647E0
4.287499117E0;-1.101968408E0;7.823426127E-1;-1.169161677E0
4.289947659E0;-1.070204377E0;8.397622705E-1;-1.187487125E0
4.292395315E0;-1.032331824E0;8.703046441E-1;-1.196038961E0
4.294843857E0;-9.956810474E-1;8.739697337E-1;-1.192373872E0
4.297293180E0;-9.578084946E-1;8.483141065E-1;-1.174048424E0
4.299741721E0;-9.187142849E-1;7.872294188E-1;-1.136175871E0
4.302189378E0;-8.771766424E-1;6.821636558E-1;-1.078756213E0
4.304637971E0;-8.380824327E-1;5.538857579E-1;-1.014006495E0
4.307087294E0;-8.014315963E-1;4.207210541E-1;-9.431481957E-1
4.309535784E0;-7.696675658E-1;2.863346636E-1;-8.649597168E-1
4.311983440E0;-7.415685654E-1;1.592784226E-1;-7.806627750E-1
4.314432034E0;-7.085828185E-1;5.421269313E-2;-7.000309825E-1
4.316881357E0;-6.682668924E-1;-3.252761811E-2;-6.181774139E-1
4.319329898E0;-6.218425035E-1;-9.727742523E-2;-5.338805318E-1
4.321777555E0;-5.607577562E-1;-1.302631795E-1;-4.544703662E-1
4.324226096E0;-4.898995161E-1;-1.412584335E-1;-3.811686933E-1
4.326675419E0;-4.056025743E-1;-1.327065676E-1;-3.115321100E-1
4.329123961E0;-3.054236174E-1;-1.168245375E-1;-2.406738251E-1
4.331571617E0;-1.942494214E-1;-1.180462316E-1;-1.624853760E-1
4.334020211E0;-7.330167294E-2;-1.314848661E-1;-7.696675509E-2
4.336469482E0;6.108472496E-2;-1.485885978E-1;6.108472589E-3
4.338918023E0;1.795890927E-1;-1.632489264E-1;8.063183725E-2
4.341365680E0;2.980934680E-1;-1.546970755E-1;1.429382563E-1
4.343814273E0;4.056025743E-1;-1.168245375E-1;1.918060333E-1
4.346263596E0;4.947862923E-1;-5.329642445E-2;2.272351831E-1
4.348712086E0;5.741963983E-1;2.855710872E-2;2.455606014E-1
4.351159794E0;6.389462352E-1;1.177408099E-1;2.443388999E-1
4.353608336E0;6.853706241E-1;2.057028115E-1;2.309002578E-1
4.356057659E0;7.159129977E-1;2.875563502E-1;2.028012872E-1
4.358506200E0;7.244648337E-1;3.474193811E-1;1.673721522E-1
4.360953857E0;7.073611021E-1;3.865135908E-1;1.209477559E-1
4.363402450E0;6.719319820E-1;4.011739492E-1;7.085828483E-2
4.365851721E0;6.181774139E-1;3.999522328E-1;1.954711229E-2
4.368300263E0;5.436540842E-1;3.865135908E-1;-3.298575059E-2
4.370747919E0;4.532486796E-1;3.681881726E-1;-8.429691941E-2
4.373196513E0;3.384093940E-1;3.425326049E-1;-1.380514801E-1
4.375645836E0;2.064663768E-1;3.193204105E-1;-1.942494214E-1
4.378094325E0;5.864133686E-2;3.071034551E-1;-2.480039895E-1
4.380542034E0;-9.773556143E-2;3.132119179E-1;-2.980934680E-1
4.382990575E0;-2.589992285E-1;3.339807391E-1;-3.481829464E-1
4.385439898E0;-4.153761268E-1;3.852919042E-1;-3.982724249E-1
4.387888440E0;-5.607577562E-1;4.720322192E-1;-4.483618736E-1
4.390336096E0;-6.878139973E-1;5.758762360E-1;-5.021164417E-1
4.392784638E0;-7.769976854E-1;6.882721782E-1;-5.595360994E-1
4.395233961E0;-8.160919547E-1;7.860077024E-1;-6.206207871E-1
4.397682503E0;-7.892146707E-1;8.519791961E-1;-6.792621613E-1
4.400130159E0;-7.024743557E-1;8.861866593E-1;-7.256865501E-1
4.402578753E0;-5.656445622E-1;9.020686746E-1;-7.501204610E-1
4.405028075E0;-3.946073353E-1;8.984035850E-1;-7.501204610E-1
4.407476565E0;-2.064663768E-1;8.825215697E-1;-7.305732965E-1
4.409924273E0;-1.099525020E-2;8.544226289E-1;-6.988092661E-1
4.412372815E0;1.783674061E-1;8.214368224E-1;-6.633801460E-1
4.414822138E0;3.555130959E-1;7.921161652E-1;-6.291726828E-1
4.417270680E0;5.167768002E-1;7.676823139E-1;-5.888567567E-1
4.419718336E0;6.584933400E-1;7.456917763E-1;-5.387672782E-1
4.422166878E0;7.757760286E-1;7.224795818E-1;-4.752391577E-1
4.424616200E0;8.502993584E-1;6.846070886E-1;-3.897205591E-1
4.427064742E0;8.857285380E-1;6.235223413E-1;-2.858765125E-1
4.429512398E0;8.918370008E-1;5.318952799E-1;-1.575985998E-1
4.431960992E0;8.906152844E-1;4.268295169E-1;-1.099525020E-2
4.434410315E0;8.686248064E-1;3.290939629E-1;1.600419879E-1
4.436858805E0;8.112051487E-1;2.680092454E-1;3.371876776E-1
4.439306513E0;8.319739699E-1;2.313583940E-1;5.253286362E-1
4.441755055E0;8.649597168E-1;2.399102598E-1;7.122479081E-1
4.444204378E0;9.211576581E-1;2.899997234E-1;8.808417320E-1
4.446652867E0;9.883508682E-1;3.730749488E-1;1.028666735E0
4.449100575E0;1.057987452E0;4.830274582E-1;1.147171140E0
4.451549117E0;1.114185452E0;6.039752364E-1;1.229024649E0
4.453998440E0;1.144727707E0;7.249229550E-1;1.286444306E0
4.456446982E0;1.139840961E0;8.299887180E-1;1.320651770E0
4.458894638E0;1.103190184E0;9.069554806E-1;1.343863964E0
4.461343232E0;1.035996914E0;9.509364963E-1;1.369519591E0
4.463792555E0;9.517000318E-1;9.607100487E-1;1.398840189E0
4.466241044E0;8.661814332E-1;9.387195110E-1;1.437934399E0
4.468688700E0;7.843278646E-1;8.886300325E-1;1.484358788E0
4.471137294E0;7.134696245E-1;8.189934492E-1;1.527118206E0
4.473586617E0;6.499415040E-1;7.322531343E-1;1.566212416E0
4.476035107E0;6.365028620E-1;6.308525205E-1;1.596754789E0
4.478482815E0;6.291726828E-1;5.062396526E-1;1.610193372E0
4.480931357E0;6.389462352E-1;3.755183518E-1;1.607749939E0
4.483380680E0;6.707102656E-1;2.423536479E-1;1.583316088E0
4.485829221E0;7.159129977E-1;1.201841980E-1;1.547886968E0
4.488276878E0;7.672241330E-1;1.756185852E-2;1.495354056E0
4.490725471E0;8.197570443E-1;-6.551336497E-2;1.426939249E0
4.493174794E0;8.686248064E-1;-1.217113137E-1;1.352415800E0
4.495623284E0;9.113841057E-1;-1.461452097E-1;1.274227381E0
4.498070940E0;9.492566586E-1;-1.290414780E-1;1.188708782E0
4.500519534E0;9.773555994E-1;-6.917845458E-2;1.099525094E0
4.502968857E0;1.006676316E0;2.367033064E-2;1.007897973E0
4.505417346E0;1.029888511E0;1.409530044E-1;9.187142849E-1
4.507865055E0;1.055544019E0;2.790044844E-1;8.356390595E-1
4.510313596E0;1.087308168E0;4.231644273E-1;7.598940134E-1
4.512762919E0;1.125180602E0;5.648810267E-1;6.963658929E-1
4.515211461E0;1.164274931E0;6.956022978E-1;6.450546980E-1
4.517659117E0;1.208255887E0;8.031114340E-1;5.986303091E-1
4.520107711E0;1.253458619E0;8.861866593E-1;5.644228458E-1
4.522557034E0;1.299883008E0;9.497147799E-1;5.363239050E-1
4.525005523E0;1.348750710E0;9.912523627E-1;5.143333673E-1
4.527453180E0;1.398840189E0;1.012021184E0;4.972296655E-1
4.529901773E0;1.445264578E0;1.018129706E0;4.825693369E-1
4.532351096E0;1.492910743E0;1.020573020E0;4.764608741E-1
4.534799586E0;1.540556788E0;1.019351363E0;4.789042473E-1
4.537247294E0;1.582094431E0;1.010799527E0;4.837910235E-1
4.539695836E0;1.617523551E0;9.985825419E-1;4.947862923E-1
4.542145159E0;1.656617761E0;9.912523627E-1;5.118899941E-1
4.544593700E0;1.684716702E0;9.765920639E-1;5.277720094E-1
4.547041357E0;1.706707239E0;9.582666159E-1;5.473191738E-1
4.549489950E0;1.718924165E0;9.362761378E-1;5.656445622E-1
4.551939273E0;1.721367598E0;9.057337642E-1;5.815265775E-1
4.554387763E0;1.720145941E0;8.727480173E-1;5.986303091E-1
4.556835419E0;1.705485582E0;8.348754644E-1;6.096255779E-1
4.559284013E0;1.689603567E0;7.896727920E-1;6.206207871E-1
4.561733336E0;1.663947940E0;7.371399403E-1;6.291726828E-1
4.564181878E0;1.640735745E0;6.894938350E-1;6.426113248E-1
4.566629534E0;1.610193372E0;6.369609833E-1;6.572716236E-1
4.569078075E0;1.574764252E0;5.880932212E-1;6.731536984E-1
4.571527398E0;1.540556788E0;5.502206683E-1;6.951441765E-1
4.573975940E0;1.510014415E0;5.221216679E-1;7.183563709E-1
4.576423596E0;1.483137131E0;4.952444136E-1;7.391251922E-1
4.578872190E0;1.456259847E0;4.708105326E-1;7.586722970E-1
4.581321513E0;1.429382563E0;4.488200247E-1;7.794411182E-1
4.583770003E0;1.404948711E0;4.219427407E-1;7.989882231E-1
4.586217711E0;1.384179831E0;3.975088596E-1;8.209787011E-1
4.588666253E0;1.364632726E0;3.791834414E-1;8.405258060E-1
4.591115575E0;1.349972486E0;3.657447994E-1;8.625163436E-1
4.593564117E0;1.337755442E0;3.620797098E-1;8.796200752E-1
4.596011773E0;1.331647038E0;3.694098890E-1;8.967237473E-1
4.598460367E0;1.326760292E0;3.816268146E-1;9.113841057E-1
4.600909638E0;1.321873426E0;3.987305462E-1;9.248227477E-1
4.603358180E0;1.324316859E0;4.231644273E-1;9.407047629E-1
4.605805836E0;1.326760292E0;4.488200247E-1;9.553651214E-1
4.608254430E0;1.325538516E0;4.756973088E-1;9.675820470E-1
4.610703753E0;1.324316859E0;5.086830258E-1;9.797990322E-1
4.613152242E0;1.313321590E0;5.526640415E-1;9.895725846E-1
4.615599898E0;1.304769754E0;6.003101468E-1;9.956810474E-1
4.618048492E0;1.294996142E0;6.479562521E-1;1.004232883E0
4.620497815E0;1.284000993E0;6.956022978E-1;1.009119630E0
4.622946357E0;1.266897202E0;7.334748507E-1;1.014006495E0
4.625394013E0;1.252236843E0;7.579087615E-1;1.018893242E0
4.627842555E0;1.237576604E0;7.713474035E-1;1.020114899E0
4.630291878E0;1.222916245E0;7.701256871E-1;1.020114899E0
4.632740419E0;1.203369141E0;7.847860456E-1;1.023779988E0
4.635188075E0;1.189930439E0;8.116632700E-1;1.028666735E0
4.637636669E0;1.177713513E0;8.532009125E-1;1.034775257E0
4.640085992E0;1.170383334E0;9.142856598E-1;1.038440347E0
4.642534482E0;1.165496588E0;9.778137207E-1;1.042105436E0
4.644982138E0;1.160609841E0;1.029124975E0;1.039662004E0
4.647430732E0;1.159388065E0;1.062110662E0;1.035996914E0
4.649880055E0;1.159388065E0;1.062110662E0;1.031110168E0
4.652328596E0;1.159388065E0;1.037676811E0;1.028666735E0
4.654776253E0;1.150836229E0;9.912523627E-1;1.031110168E0
4.657224846E0;1.142284393E0;9.399412274E-1;1.038440347E0
4.659674117E0;1.131289124E0;8.959602118E-1;1.048213840E0
4.662122659E0;1.114185452E0;8.641961813E-1;1.054322362E0
4.664570315E0;1.094638348E0;8.532009125E-1;1.057987452E0
4.667018909E0;1.071426034E0;8.580876589E-1;1.062874198E0
4.669468232E0;1.048213840E0;8.703046441E-1;1.062874198E0
4.671916721E0;1.029888511E0;8.861866593E-1;1.060430884E0
4.674364430E0;1.007897973E0;8.996253014E-1;1.057987452E0
4.676812971E0;9.907942414E-1;9.130639434E-1;1.051878929E0
4.679262294E0;9.712471366E-1;9.179506898E-1;1.046992183E0
4.681710836E0;9.492566586E-1;9.142856598E-1;1.038440347E0
4.684158492E0;9.297095537E-1;9.069554806E-1;1.033553600E0
4.686607086E0;9.101623893E-1;9.081771374E-1;1.027445078E0
4.689056357E0;8.918370008E-1;9.093988538E-1;1.021336675E0
4.691504898E0;8.637380004E-1;9.069554806E-1;1.011563063E0
4.693952555E0;8.393041492E-1;9.081771374E-1;1.003011227E0
4.696401148E0;8.124268651E-1;9.106205702E-1;9.932376146E-1
4.698850471E0;7.879929543E-1;9.167290330E-1;9.846857786E-1
4.701298961E0;7.635591030E-1;9.228374958E-1;9.736905098E-1
4.703746669E0;7.427902818E-1;9.362761378E-1;9.651386738E-1
4.706195211E0;7.220214605E-1;9.484930634E-1;9.565867782E-1
4.708644534E0;7.049177289E-1;9.631534219E-1;9.468132257E-1
4.711093075E0;6.829272509E-1;9.704836011E-1;9.358180165E-1
4.713540732E0;6.584933400E-1;9.802571535E-1;9.248227477E-1
4.715989325E0;6.389462352E-1;9.936957955E-1;9.138274789E-1
4.718438596E0;6.242858768E-1;1.010799527E0;9.064973593E-1
4.720887138E0;6.132906675E-1;1.026681542E0;8.979454637E-1
4.723334794E0;6.010736823E-1;1.036455035E0;8.857285380E-1
4.725783388E0;5.937435627E-1;1.041341901E0;8.698465228E-1
4.728232711E0;5.851916671E-1;1.040120125E0;8.527427912E-1
4.730681200E0;5.803049207E-1;1.034011722E0;8.356390595E-1
4.733128909E0;5.766398311E-1;1.019351363E0;8.185353279E-1
4.735577450E0;5.717530251E-1;9.973608851E-1;7.989882231E-1
4.738026773E0;5.632011890E-1;9.765920639E-1;7.818844914E-1
4.740475315E0;5.619794726E-1;9.558232427E-1;7.635591030E-1
4.742922971E0;5.558710098E-1;9.313893318E-1;7.452336550E-1
4.745371565E0;5.436540842E-1;9.020686746E-1;7.269082665E-1
4.747820836E0;5.338805318E-1;8.776348233E-1;7.122479081E-1
4.750269378E0;5.228852630E-1;8.507575393E-1;6.927008033E-1
4.752717034E0;5.082249045E-1;8.238802552E-1;6.743753552E-1
4.755165628E0;4.886777997E-1;7.957812548E-1;6.560499668E-1
4.757614950E0;4.666872919E-1;7.689039707E-1;6.377245188E-1
4.760063440E0;4.434750974E-1;7.530219555E-1;6.267293096E-1
4.762511148E0;4.190412164E-1;7.395833135E-1;6.120689511E-1
4.764959690E0;3.982724249E-1;7.334748507E-1;5.998520255E-1
4.767409013E0;3.738385141E-1;7.310314775E-1;5.900784731E-1
4.769857555E0;3.494046330E-1;7.261446714E-1;5.815265775E-1
4.772305211E0;3.249707520E-1;7.237012982E-1;5.729747415E-1
4.774753805E0;3.005368412E-1;7.188144922E-1;5.632011890E-1
4.777203128E0;2.712161839E-1;7.078192830E-1;5.534276366E-1
4.779651617E0;2.394521236E-1;6.870504618E-1;5.460974574E-1
4.782099273E0;2.003578991E-1;6.577298045E-1;5.424323678E-1
4.784547867E0;1.588202864E-1;6.259657145E-1;5.375455618E-1
4.786997190E0;1.160609797E-1;5.929799676E-1;5.326588154E-1
4.789445680E0;6.841489673E-2;5.599942207E-1;5.253286362E-1
4.791893388E0;1.832541823E-2;5.294518471E-1;5.106683373E-1
4.794341930E0;-2.932066843E-2;5.074613690E-1;4.972296655E-1
4.796791253E0;-7.452336699E-2;4.866925478E-1;4.789042473E-1
4.799239794E0;-1.185043678E-1;4.659237564E-1;4.581354558E-1
4.801687450E0;-1.490467340E-1;4.427115619E-1;4.288147688E-1
4.804136044E0;-1.685938388E-1;4.170559645E-1;3.982724249E-1
4.806585367E0;-1.795890927E-1;3.865135908E-1;3.665083647E-1
4.809033857E0;-1.808107942E-1;3.559712470E-1;3.323009014E-1
4.811481565E0;-1.783674061E-1;3.095468581E-1;2.993151546E-1
4.813930107E0;-1.759240031E-1;2.606790662E-1;2.675510943E-1
4.816379430E0;-1.685938388E-1;2.057028115E-1;2.345653474E-1
4.818827971E0;-1.661504507E-1;1.458397806E-1;2.015796006E-1
4.821275628E0;-1.637070626E-1;8.353336155E-2;1.685938388E-1
4.823724221E0;-1.637070626E-1;2.367033064E-2;1.356080920E-1
4.826173492E0;-1.612636745E-1;-2.641914412E-2;1.050657257E-1
4.828622034E0;-1.673721522E-1;-7.406523079E-2;7.452336699E-2
4.831069690E0;-1.722589284E-1;-1.107160673E-1;4.764608666E-2
4.833518284E0;-1.808107942E-1;-1.388150454E-1;2.321219631E-2
4.835967607E0;-1.893626451E-1;-1.559187621E-1;1.221694518E-3
4.838416096E0;-2.003578991E-1;-1.620272398E-1;-2.321219631E-2
4.840863805E0;-2.162399292E-1;-1.583621502E-1;-4.520269856E-2
4.843312346E0;-2.321219593E-1;-1.424801201E-1;-6.597150117E-2
4.845761669E0;-2.528907657E-1;-1.204896197E-1;-8.551861346E-2
4.848210211E0;-2.748812735E-1;-8.506047726E-2;-1.087308154E-1
4.850657867E0;-3.054236174E-1;-5.573981255E-2;-1.343863904E-1
4.853106461E0;-3.371876776E-1;-2.886253223E-2;-1.588202864E-1
4.855555784E0;-3.738385141E-1;-7.635590737E-4;-1.869192570E-1
4.858004273E0;-4.165978432E-1;1.878355257E-2;-2.162399292E-1
4.860451982E0;-4.654656053E-1;2.733541466E-2;-2.467822880E-1
4.862900523E0;-5.118899941E-1;3.100049868E-2;-2.761029601E-1
4.865349846E0;-5.570927262E-1;3.100049868E-2;-3.054236174E-1
4.867798388E0;-6.047387719E-1;2.000524849E-2;-3.371876776E-1
4.870246044E0;-6.511631608E-1;6.566607859E-3;-3.713951409E-1
4.872694586E0;-6.963658929E-1;-5.650337320E-3;-4.056025743E-1
4.875143909E0;-7.464553714E-1;-1.664558798E-2;-4.422534108E-1
4.877592450E0;-7.977665067E-1;-2.641914412E-2;-4.764608741E-1
4.880040107E0;-8.551861644E-1;-3.130592033E-2;-5.143333673E-1
4.882488700E0;-9.162709117E-1;-2.764083818E-2;-5.509842038E-1
4.884938023E0;-9.834640622E-1;-1.053711493E-2;-5.888567567E-1
4.887386513E0;-1.056765795E0;1.511846948E-2;-6.291726828E-1
4.889834221E0;-1.141062737E0;3.955236077E-2;-6.658235192E-1
4.892282763E0;-1.230246425E0;6.887302548E-2;-7.073611021E-1
4.894732086E0;-1.325538516E0;1.006370857E-1;-7.464553714E-1
4.897180628E0;-1.424495816E0;1.226275861E-1;-7.879929543E-1
4.899628284E0;-1.524674773E0;1.348445266E-1;-8.356390595E-1
4.902076878E0;-1.623632073E0;1.397313178E-1;-8.820634484E-1
4.904526148E0;-1.722589254E0;1.299577504E-1;-9.297095537E-1
4.906974690E0;-1.817881465E0;1.079672500E-1;-9.810206890E-1
4.909422346E0;-1.914548039E0;7.620319724E-2;-1.033553600E0
4.911870940E0;-2.004953384E0;3.100049868E-2;-1.089751482E0
4.914320263E0;-2.092915535E0;-2.519745007E-2;-1.148392797E0
4.916768753E0;-2.172325611E0;-9.483403713E-2;-1.210699320E0
4.919216461E0;-2.248070717E0;-1.754658818E-1;-1.274227381E0
4.921665003E0;-2.318928957E0;-2.609844804E-1;-1.334090471E0
4.924114325E0;-2.383678675E0;-3.550549746E-1;-1.389066696E0
4.926562867E0;-2.439876556E0;-4.540122151E-1;-1.441599488E0
4.929010523E0;-2.487522840E0;-5.566345453E-1;-1.489245653E0
4.931459117E0;-2.525395393E0;-6.580352187E-1;-1.529561520E0
4.933908440E0;-2.560824394E0;-7.484406233E-1;-1.563768983E0
4.936356930E0;-2.591366768E0;-8.302941322E-1;-1.590646267E0
4.938804586E0;-2.613357306E0;-8.889354467E-1;-1.607749939E0
4.941253180E0;-2.632904291E0;-9.280297160E-1;-1.619966984E0
4.943702503E0;-2.647564650E0;-9.463551044E-1;-1.628518820E0
4.946151044E0;-2.656116486E0;-9.426900148E-1;-1.639514089E0
4.948598700E0;-2.659781694E0;-9.194778204E-1;-1.654174328E0
4.951047242E0;-2.651229858E0;-8.779402375E-1;-1.671278119E0
4.953496565E0;-2.641456366E0;-8.205205798E-1;-1.692046881E0
4.955945107E0;-2.626796007E0;-7.484406233E-1;-1.710372329E0
4.958392763E0;-2.604805470E0;-6.653653979E-1;-1.726254344E0
4.960841357E0;-2.576706409E0;-5.712949038E-1;-1.738471270E0
4.963290680E0;-2.544942379E0;-4.821111858E-1;-1.744579792E0
4.965739169E0;-2.504626513E0;-3.953709006E-1;-1.744579792E0
4.968186878E0;-2.458202124E0;-3.184041381E-1;-1.747023106E0
4.970635419E0;-2.394674063E0;-2.585411072E-1;-1.754353285E0
4.973084742E0;-2.323815584E0;-2.145601064E-1;-1.762905240E0
4.975533284E0;-2.239518881E0;-1.803526580E-1;-1.769013643E0
4.977980940E0;-2.146669865E0;-1.485885978E-1;-1.767791986E0
4.980429534E0;-2.053821087E0;-1.253764033E-1;-1.756796718E0
4.982878857E0;-1.962194085E0;-1.009425074E-1;-1.742136359E0
4.985327346E0;-1.876675487E0;-7.895200700E-2;-1.725032687E0
4.987775003E0;-1.799556017E0;-6.306997687E-2;-1.705485582E0
4.990223596E0;-1.737249613E0;-5.573981255E-2;-1.684716702E0
4.992672919E0;-1.688381791E0;-6.429167092E-2;-1.660282850E0
4.995121461E0;-1.654174328E0;-8.628217876E-2;-1.633405566E0
4.997569117E0;-1.629740477E0;-1.314848661E-1;-1.604084849E0
5.000017659E0;-1.622410297E0;-1.986780763E-1;-1.578429341E0
5.002466982E0;-1.626075387E0;-2.841966748E-1;-1.561325550E0
5.004915523E0;-1.641957402E0;-3.892624080E-1;-1.560103893E0
5.007363180E0;-1.670056462E0;-4.979932308E-1;-1.566212416E0
5.009811773E0;-1.707928896E0;-5.993938446E-1;-1.575985909E0
5.012261096E0;-1.749466538E0;-6.910209656E-1;-1.585759521E0
5.014709586E0;-1.798334360E0;-7.631009221E-1;-1.589424610E0
5.017157294E0;-1.847202063E0;-8.131904006E-1;-1.593089700E0
5.019605836E0;-1.887670755E0;-8.425110579E-1;-1.594311357E0
5.022055159E0;-1.924321532E0;-8.583931327E-1;-1.596754789E0
5.024503700E0;-1.951198816E0;-8.657232523E-1;-1.600419760E0
5.026951357E0;-1.973189354E0;-8.571714163E-1;-1.596754789E0
5.029399950E0;-1.980519533E0;-8.364025950E-1;-1.593089700E0
5.031849221E0;-1.970745921E0;-8.131904006E-1;-1.586981177E0
5.034297763E0;-1.956085682E0;-8.095253110E-1;-1.584537745E0
5.036745419E0;-1.924321532E0;-8.192988634E-1;-1.583316088E0
5.039194013E0;-1.884005666E0;-8.327375054E-1;-1.583316088E0
5.041643336E0;-1.842315316E0;-8.290724158E-1;-1.585759521E0
5.044091825E0;-1.798334360E0;-8.009734750E-1;-1.589424610E0
5.046539534E0;-1.747023106E0;-7.643226385E-1;-1.590646267E0
5.048988075E0;-1.700598717E0;-7.288935184E-1;-1.593089700E0
5.051437398E0;-1.652952671E0;-7.069029808E-1;-1.593089700E0
5.053885940E0;-1.607749939E0;-6.995728016E-1;-1.594311357E0
5.056333596E0;-1.564990640E0;-7.007945180E-1;-1.594311357E0
5.058782190E0;-1.522231340E0;-7.166765332E-1;-1.589424610E0
5.061231513E0;-1.481915474E0;-7.484406233E-1;-1.584537745E0
5.063680003E0;-1.440377831E0;-8.046385646E-1;-1.585759521E0
5.066127711E0;-1.401283622E0;-8.767185211E-1;-1.582094431E0
5.068576253E0;-1.362189412E0;-9.622371197E-1;-1.577207565E0
5.071025575E0;-1.327981949E0;-1.058750987E0;-1.572320819E0
5.073474117E0;-1.291331053E0;-1.158929944E0;-1.567434072E0
