"Time (s)";"Linear Acceleration x (m/s^2)";"Linear Acceleration y (m/s^2)";"Linear Acceleration z (m/s^2)"
1.660312340E-1;1.595413685E-1;-7.148981094E-2;1.288471222E-1
1.843437340E-1;7.573080063E-2;-8.281326294E-2;2.684707642E-1
2.026562340E-1;9.702849388E-2;-4.697561264E-3;7.624912262E-2
2.209691000E-1;3.645634651E-2;1.801729202E-2;1.442575455E-1
2.392809890E-1;-1.976220608E-1;4.267692566E-4;2.886352539E-1
2.575947100E-1;4.982042313E-2;-3.749155998E-2;2.324619293E-1
2.759062950E-1;8.225989342E-2;-1.626968384E-1;8.458137512E-2
2.942084800E-1;-7.463288307E-2;-1.500909328E-1;-6.943607330E-2
3.125204910E-1;-2.476978302E-2;2.144789696E-2;-1.336879730E-1
3.308321980E-1;3.349232674E-2;-8.827114105E-2;-5.762767792E-2
3.491453080E-1;9.399390221E-2;-9.984970093E-2;3.995609283E-2
3.674591510E-1;7.317924500E-2;-6.545782089E-2;-1.670026779E-1
3.857809290E-1;1.887798309E-2;-3.899455070E-2;-2.175283432E-1
4.040935500E-1;-4.433226585E-2;-1.436533928E-1;-2.237119675E-1
4.224048300E-1;-1.823382378E-1;-1.347715855E-1;-3.018074036E-1
4.407124480E-1;-2.411520481E-1;-1.997828484E-2;-6.001462936E-1
4.590310500E-1;-2.196922302E-1;3.849816322E-2;-8.472700119E-1
4.773436110E-1;-1.793344021E-1;4.533219337E-2;-9.544639587E-1
4.956561110E-1;-1.636323929E-1;8.884906769E-3;-1.044096947E0
5.139687330E-1;-2.496700287E-1;8.515715599E-2;-1.128184319E0
5.322808060E-1;-3.300399780E-1;1.581549644E-1;-1.136250496E0
5.505933060E-1;-3.905808926E-1;-1.284308434E-1;-5.931177139E-1
5.689046460E-1;-3.579092026E-1;-1.536388397E-1;-1.983461380E-1
5.872175740E-1;-4.246296883E-1;-2.475640774E-1;-2.229909897E-1
6.055308060E-1;-6.812460423E-1;-1.694046259E-1;-5.169448853E-1
6.238432450E-1;-2.505803108E-1;1.235148907E-1;-5.089330673E-1
6.421557450E-1;-5.110979080E-3;2.579901218E-1;-1.046076775E0
6.604685500E-1;7.291188240E-1;1.049201846E0;-1.506236553E0
6.787736650E-1;6.244769096E-1;1.423387170E0;-1.698410988E0
6.970945270E-1;2.676649094E-1;1.062821746E0;-2.925237656E0
7.154058670E-1;-1.529245615E0;5.137658715E-1;-4.003592491E0
7.337186110E-1;-3.230951786E0;2.388856709E-1;-5.375169277E0
7.520337360E-1;-4.541866779E0;-1.249788404E-1;-5.194009304E0
7.703442220E-1;-3.523987770E0;-5.456162095E-1;-4.383771896E0
7.886555620E-1;-1.795517445E0;2.541888952E-1;-3.286900997E0
8.069685500E-1;-1.180100441E0;5.035042763E-1;-1.896965027E0
8.252805010E-1;1.335585117E0;9.241218567E-1;-3.826821327E0
8.435930620E-1;3.729158401E0;3.746616602E0;-1.454591751E0
8.619055620E-1;1.217148781E0;4.305481434E0;-8.005666733E-2
8.802154380E-1;-2.817839622E0;2.578531265E0;-1.086949825E0
8.985317220E-1;-4.349277496E0;1.254193306E0;-1.889184952E0
9.168402540E-1;-2.585523129E0;1.046993732E0;-1.096585751E0
9.351442100E-1;-3.078360558E-1;1.038105488E0;3.115191460E-1
9.534574420E-1;2.454867363E-1;6.318135262E-1;3.775854111E-1
9.717695760E-1;1.008598328E0;-2.379107475E-1;-9.237813950E-2
9.900818320E-1;1.506920815E0;-7.726130486E-1;1.123131752E0
1.008394637E0;1.285459518E0;-2.637032986E0;2.711787939E0
1.026706831E0;1.504933834E0;-3.521550655E0;3.423425436E0
1.045019515E0;1.757944584E0;-3.801496983E0;3.341107845E0
1.063332015E0;7.037239075E-1;-4.480858803E0;2.743821144E0
1.081644210E0;5.114555359E-2;-3.502121925E0;3.268995523E0
1.099959517E0;-1.824040413E-1;-3.145259857E0;2.902718067E0
1.118269088E0;7.481527328E-1;-2.592352867E0;2.230440378E0
1.136581344E0;1.782409430E0;-1.527052879E0;1.570549965E0
1.154895430E0;1.007957458E0;-1.618852615E0;2.126145363E-1
1.173208235E0;-5.250539780E-1;-2.067514420E0;-6.630389094E-1
1.191517989E0;-1.498060703E0;-2.499388695E0;-8.869352341E-1
1.209839949E0;-1.990620971E0;-2.906591415E0;-5.198588967E-1
1.228155318E0;-1.990928888E0;-2.258458138E0;2.341639400E-1
1.246469039E0;-8.617868423E-1;-1.855883598E0;5.521387458E-1
1.264766158E0;4.605352879E-1;-1.679048538E0;2.807707191E-1
1.283092757E0;8.711109161E-1;-1.475389481E0;1.346081495E-3
1.301405318E0;1.317027569E0;-1.427782059E0;-2.824316621E-1
1.319718001E0;1.203545094E0;-1.631542206E0;-3.249286413E-1
1.338031295E0;6.471850872E-1;-1.439061165E0;-1.684101075E-1
1.356343734E0;6.861939430E-1;-1.307295799E0;-1.244582757E-1
1.374655318E0;5.298149586E-1;-1.574357986E0;-2.134540528E-1
1.392968123E0;4.801025391E-1;-1.148297310E0;2.079314142E-1
1.411280257E0;6.091887951E-1;-7.866573334E-1;4.549755454E-1
1.429588424E0;2.346794605E-1;-7.918643951E-1;4.116965234E-1
1.447905318E0;3.163375854E-1;-5.230388641E-1;3.161729872E-2
1.466217818E0;1.877779961E-1;-2.868118286E-1;-8.834341168E-2
1.484530318E0;-3.883749247E-1;-6.149377823E-1;-3.940772712E-1
1.502842818E0;-6.467056274E-2;-4.896984100E-1;-6.276217699E-1
1.521155013E0;-9.534358978E-2;-5.665969849E-2;-7.432238460E-1
1.539465377E0;-2.105238438E-1;1.537094116E-1;-7.255765796E-1
1.557780074E0;1.709218025E-1;1.849861145E-1;-4.081400335E-1
1.576092818E0;5.614774227E-1;1.085739136E-1;-1.421116590E-1
1.594405318E0;1.040360928E-1;2.787055969E-1;1.823908091E-2
1.612717879E0;-3.831454515E-1;3.717451096E-1;-8.087050915E-2
1.631030074E0;-6.161645651E-1;1.850547791E-1;-4.220645130E-1
1.649341232E0;-9.040030241E-1;-3.784656525E-2;2.334903479E-1
1.667655257E0;-1.579266310E0;-3.256816864E-1;3.694934249E-1
1.685967818E0;-1.448906183E0;-3.039627075E-1;2.999372482E-1
1.704280013E0;-7.382409573E-1;1.671400070E-1;4.125024080E-1
1.722587691E0;-2.878470421E-1;5.319318771E-1;3.977842331E-1
1.740905074E0;-4.028842449E-1;2.519159317E-1;-3.778971434E-1
1.759217757E0;-3.756639957E-1;-2.200918198E-1;-8.289210796E-1
1.777528854E0;3.581557274E-1;9.104633331E-2;-4.543143511E-1
1.795842635E0;1.018347263E0;4.396219254E-1;-2.477542162E-1
1.814155074E0;1.200116158E0;3.376512527E-1;-6.284165382E-2
1.832467635E0;6.545667648E-1;-8.800506592E-2;-1.217788458E-1
1.850774093E0;5.782756805E-1;-1.824216843E-1;-5.903983116E-2
1.869092513E0;5.110592842E-1;-1.913690567E-1;2.188332081E-1
1.887408126E0;5.222225189E-2;-4.287309647E-1;3.305373192E-1
1.905720626E0;-3.448588848E-1;-5.584936142E-1;2.065316439E-1
1.924029769E0;-2.405951023E-1;-3.421821594E-1;2.162164450E-1
1.942340011E0;-2.766830921E-1;-1.354589462E-1;1.331372261E-1
1.960648970E0;-4.851858616E-1;-4.551696777E-2;8.282077312E-2
1.978969039E0;-3.142356873E-3;3.302507401E-1;5.244674683E-1
1.997278976E0;8.771800995E-2;1.355628967E-1;4.639238119E-1
2.015592330E0;-3.661069870E-1;-7.792568207E-1;3.799815178E-1
2.033904830E0;1.088571548E-2;-2.141895294E-1;5.363305807E-1
2.052217879E0;-5.353975296E-1;1.687059402E-1;4.892716408E-1
2.070529769E0;-4.978244305E-1;1.823892593E-1;1.485655308E-1
2.088842574E0;-6.438081264E-1;-2.243995667E-3;8.047246933E-2
2.107155257E0;-1.036621809E0;-1.930580139E-1;-3.018140793E-2
2.125467574E0;-6.389870644E-1;-1.986293793E-1;-2.527464628E-1
2.143782943E0;1.462192535E-1;4.273500443E-1;-1.214191914E-1
2.162092330E0;3.732940197E0;1.220235825E0;7.331228256E-2
2.180405990E0;3.233892441E0;8.905038834E-1;-1.662128925E0
2.198717513E0;2.340013504E0;4.313449860E-1;-2.828839540E0
2.217030074E0;1.497331858E0;-1.119003296E-1;-3.016267776E0
2.235342391E0;-2.110398769E0;-6.960792542E-1;-3.000538111E0
2.253654830E0;4.815011024E-1;-2.206811905E-1;-2.285546064E0
2.271968062E0;1.363023758E0;3.566455841E-1;-1.678630114E-1
2.290274032E0;1.188488483E0;4.710845947E-1;3.507404327E-1
2.308592330E0;7.330856323E-1;-3.890609741E-2;-3.421318531E-2
2.326905074E0;1.182160378E-1;-5.597925186E-1;-5.053029656E-1
2.345217330E0;-1.505756378E-2;-2.888336182E-1;1.677893996E-1
2.363524947E0;1.972002983E-1;-4.780502319E-1;-3.629416227E-1
2.381842574E0;4.667296410E-1;-1.003684998E-1;-5.310983658E-1
2.400155013E0;5.065350533E-1;1.180620193E-1;-5.483523011E-1
2.418466415E0;7.315325737E-1;4.692530632E-1;-3.320671618E-1
2.436779830E0;1.382884979E-1;4.913153648E-1;-1.187185645E0
2.455092330E0;-9.871878624E-1;5.347719193E-1;-6.849409938E-1
2.473405074E0;-2.099881172E-1;-4.283952713E-2;-6.361396909E-1
2.491713057E0;5.520710945E-1;-5.232715607E-2;-1.066231728E-1
2.510029830E0;5.822086334E-1;-1.319022179E-1;-1.196247339E-2
2.528342391E0;3.841066360E-2;-1.786317825E-1;-4.666733742E-2
2.546654830E0;-2.236151695E-1;-1.352691650E-1;4.264900684E-1
2.564967330E0;-5.031285286E-1;-1.195282936E-1;5.983591080E-2
2.583276962E0;-6.129283905E-1;-3.853425980E-1;-2.439532280E-1
2.601592025E0;-9.124708176E-2;-5.588564873E-1;1.662296057E-1
2.619906051E0;3.463602066E-2;-3.408889771E-1;6.051735878E-1
2.638213607E0;3.665747643E-1;4.558944702E-2;9.155039787E-1
2.656519149E0;1.738843918E-1;3.533844948E-1;8.569184542E-1
2.674844894E0;3.138337135E-1;8.796677589E-1;5.967631340E-1
2.693154830E0;-7.273435593E-2;1.564448357E0;7.272901535E-1
2.711468978E0;-4.083609581E-1;1.350714207E0;-8.097171783E-3
2.729779891E0;4.365892410E-1;1.253915787E0;-4.298210144E-2
2.748093490E0;4.878802299E-1;7.535228729E-1;3.606593609E-2
2.766405685E0;7.863006592E-1;3.475689888E-1;-3.192925453E-2
2.784718794E0;6.964683533E-2;3.634181023E-1;1.135511398E-1
2.803029830E0;-1.337800026E-1;4.296522141E-1;1.095602512E-1
2.821342574E0;-7.160086632E-1;2.348513603E-1;2.490706444E-1
2.839654769E0;-7.304506302E-1;2.886843681E-1;1.788697243E-1
2.857967635E0;3.906950951E-1;2.323188782E-1;6.408269405E-1
2.876279830E0;-3.238773346E-2;-1.514720917E-2;3.246572018E-1
2.894592025E0;-8.095488548E-1;-4.650902748E-1;-2.638323307E-1
2.912904586E0;-1.108339787E0;-8.806991577E-1;-4.195528030E-1
2.931211837E0;-8.517789841E-1;-1.049739361E0;-4.219055176E-1
2.949525863E0;-3.714556694E-1;-9.752731323E-1;-2.807946205E-1
2.967842391E0;-4.807806015E-2;-1.017344475E0;2.014846802E-1
2.986154647E0;-1.182265282E-1;-9.758329391E-1;6.186785698E-1
3.004467574E0;-5.591149330E-1;-1.002521515E0;6.513497829E-1
3.022780135E0;-6.540851593E-1;-1.022631168E0;5.877075195E-1
3.041092025E0;-6.721553802E-1;-1.525095940E0;4.037039280E-1
3.059403609E0;1.018018723E-1;-1.538016319E0;5.917735100E-1
3.077717635E0;5.310535431E-3;-1.444419861E0;9.171001911E-1
3.096029891E0;-1.502256393E-1;-1.459583759E0;9.632349014E-1
3.114342330E0;-5.712504387E-1;-5.620517731E-1;1.248362780E0
3.132647323E0;9.651546478E-1;-1.668680668E0;4.519925117E-1
3.150967574E0;4.187822342E-2;-1.928803444E0;5.865836143E-1
3.169279647E0;-3.912358284E-1;-1.807335854E0;8.166046143E-1
3.187591109E0;-4.806828499E-1;-1.313385487E0;1.043832779E0
3.205904769E0;-1.444158554E-1;6.684303284E-2;1.037961483E0
3.224217635E0;-4.393148422E-1;6.211943626E-1;6.505279541E-1
3.242530013E0;-2.930393219E-1;8.133072853E-1;-5.970258713E-1
3.260842513E0;-5.998277664E-1;1.668772697E-1;1.157069683E0
3.279143599E0;-2.588267326E-1;5.429849625E-1;6.067490578E-1
3.297459212E0;-1.090431213E-2;-1.280350685E-1;3.544816971E-1
3.315770552E0;3.496160507E-1;-4.901151657E-1;4.467678070E-1
3.334094405E0;1.240730286E-3;-6.058554649E-1;4.518260956E-1
3.352407577E0;-4.073967934E-1;2.277340889E-1;-2.491126060E-1
3.370717635E0;-1.106343269E0;-3.241896629E-1;-4.047727585E-2
3.389031051E0;-1.552945614E0;-1.713262081E0;1.976919174E-1
3.407342025E0;-2.001216412E0;-2.249313831E0;-1.012506485E-1
3.425653793E0;-2.615593195E0;-2.721363544E0;7.777004242E-1
3.443967574E0;-2.977488518E0;-3.958784103E0;9.722576141E-1
3.462279830E0;7.697734833E-1;-2.894413471E0;1.285245895E0
3.480592269E0;6.337475777E-1;-1.564322472E0;4.415903091E-1
3.498904830E0;-2.915115356E-1;-1.373713017E0;-1.663030148E0
3.517217880E0;-2.675704956E-1;-7.671904564E-1;-2.097848892E0
3.535532699E0;-8.005628586E-1;-4.825205803E-1;-1.033964634E0
3.553842391E0;-1.135386944E0;-1.371364594E-1;5.516757965E-1
3.572143660E0;-9.270544052E-1;2.179193497E-2;1.894535065E0
3.590456587E0;-3.316631317E-1;5.353083611E-1;2.940418482E0
3.608768416E0;3.648900986E-2;1.001739502E0;3.387692928E0
3.627082809E0;1.287764072E0;1.895237923E0;3.052204847E0
3.645404525E0;2.259799957E0;2.799641371E0;1.889634132E0
3.663717574E0;1.831516266E0;2.539733410E0;7.134723663E-1
3.682029586E0;1.247323990E0;2.064739227E0;2.749876976E-1
3.700336532E0;1.237169743E0;1.643985271E0;2.669248581E-1
3.718654769E0;2.240251541E0;1.511807442E0;3.982915878E-1
3.736967574E0;3.369034290E0;1.205908775E0;1.282634735E-1
3.755279647E0;3.534842014E0;9.583115578E-1;-3.118405342E-1
3.773587447E0;3.165309429E0;9.309797287E-1;-7.859921455E-1
3.791907760E0;2.715489864E0;4.608998299E-1;-9.778122902E-1
3.810207198E0;2.092924595E0;4.396142960E-1;-5.915260315E-1
3.828518538E0;9.649872780E-1;4.059548378E-1;-3.732140064E-1
3.846833846E0;-2.058744431E-2;1.701002121E-1;-2.577791214E-1
3.865143172E0;-7.087268829E-1;-1.429204941E-1;1.389803886E-1
3.883458846E0;-5.845432281E-1;-2.798566818E-1;5.694537163E-1
3.901779830E0;-2.809553146E-1;-7.692432404E-2;7.367372513E-1
3.920092330E0;-5.583839417E-1;6.277322769E-2;5.401201248E-1
3.938404891E0;-1.057692528E0;-2.499055862E-2;-3.008244038E-1
3.956717635E0;-1.050110340E0;-7.961463928E-2;-7.308259010E-1
3.975029830E0;-1.224898338E0;-2.213525772E-1;-3.325893879E-1
3.993342330E0;-8.496203423E-1;-3.394932747E-1;-1.185033321E-1
4.011654830E0;-1.381616592E-1;-3.207182884E-1;2.868812084E-1
4.029968795E0;3.277997971E-1;-5.745654106E-1;7.595758438E-1
4.048279891E0;2.885127068E-1;-4.885535240E-1;5.528615713E-1
4.066592086E0;8.801126480E-2;-3.332986832E-1;-4.427719116E-2
4.084905074E0;-5.530357361E-2;-4.091205597E-1;-8.604950905E-1
4.103217574E0;-6.999635696E-2;-1.498637199E-1;-1.477633715E0
4.121529525E0;4.465723038E-2;2.313184738E-2;-1.714462042E0
4.139842574E0;1.615948677E-1;9.784984589E-2;-1.479279041E0
4.158155990E0;1.671218872E-1;2.102136612E-2;-1.116827965E0
4.176465316E0;4.485998154E-1;1.251683235E-1;-7.978169918E-1
4.194779830E0;8.050370216E-1;2.530450821E-1;-6.572115421E-1
4.213087935E0;9.088478088E-1;4.299273491E-1;-7.541618347E-1
4.231407760E0;8.110733032E-1;5.073599815E-1;-9.475479126E-1
4.249717635E0;5.146746635E-1;5.664043427E-1;-9.197022915E-1
4.268030013E0;2.819786072E-1;5.187406540E-1;-8.451337814E-1
4.286343246E0;-2.868986130E-2;2.633290291E-1;-5.325057507E-1
4.304651961E0;-1.842522621E-1;-2.909345627E-1;-1.239514351E-2
4.322967574E0;-7.993221283E-3;-6.368470192E-1;5.596811771E-1
4.341275130E0;5.376677513E-1;-6.928420067E-1;8.740251064E-1
4.359587935E0;7.889308929E-1;-6.650838852E-1;1.006795883E0
4.377905013E0;6.293144226E-1;-6.401772499E-1;1.061431408E0
4.396217879E0;5.363483429E-1;-6.042580605E-1;1.174427032E0
4.414530074E0;2.309861183E-1;-7.305822372E-1;1.688861609E0
4.432842635E0;-1.071124077E-1;-7.941079140E-1;2.157143593E0
4.451155135E0;-3.397898674E-1;-8.464512825E-1;2.313693762E0
4.469462692E0;-3.222312927E-1;-6.652212143E-1;2.302136421E0
4.487780074E0;-2.122125626E-1;-4.082627296E-1;1.906283379E0
4.506092330E0;-4.300866127E-1;-2.081732750E-1;1.398569584E0
4.524405074E0;-4.770021439E-1;8.313179016E-3;1.076370120E0
4.542717574E0;-4.121351242E-1;4.365825653E-2;1.183598042E0
4.561029586E0;-2.720894814E-1;-2.988343239E-1;9.476518631E-1
4.579342574E0;-1.855492592E-1;-2.968549728E-2;1.204993606E0
4.597653915E0;1.511335373E-1;1.150608063E-2;1.017123938E0
4.615968123E0;6.384506226E-1;-2.163600922E-2;6.571404934E-1
4.634268477E0;8.622303009E-1;1.589903831E-1;5.858252048E-1
4.652592635E0;8.169984818E-1;5.943489075E-1;4.773983955E-1
4.670891219E0;8.114690781E-1;7.646141052E-1;-9.747767448E-2
4.689206954E0;6.297035217E-1;9.177908897E-1;-4.752037525E-1
4.707518416E0;-3.847646713E-2;6.385722160E-1;-5.337381363E-1
4.725831832E0;-4.947972298E-1;2.408237457E-1;-5.831182003E-1
4.744144026E0;-4.519381523E-1;2.546882629E-1;-4.266285896E-1
4.762456405E0;-2.427668571E-1;4.103031158E-1;-5.869278908E-1
4.780769637E0;-6.748390198E-2;5.414729118E-1;-8.692865372E-1
4.799080855E0;-1.055316925E-1;6.454968452E-1;-7.711174488E-1
4.817394332E0;-1.828384399E-2;5.625743866E-1;-6.278152466E-1
4.835706585E0;-5.960798264E-2;1.982645988E-1;-6.346920729E-1
4.854019942E0;-1.589264870E-1;-3.030476570E-1;-1.238263845E-1
4.872331954E0;-3.975377083E-1;-2.596397400E-1;-2.620181561E0
4.890643965E0;-4.182062149E-1;-5.271105766E-1;-6.864049435E-1
4.908956587E0;-2.399473190E-1;-5.933451653E-1;-1.834577203E0
4.927281966E0;-4.751396179E-1;-6.815199852E-1;-1.765365362E0
4.945592391E0;-6.112809181E-1;-9.233684540E-1;-1.044532895E0
4.963905074E0;-5.633873940E-1;-8.571000099E-1;-5.101978779E-1
4.982212630E0;-4.808669090E-1;-5.215487480E-1;-3.436175585E-1
5.000519088E0;-2.012333870E-1;-9.288725853E-1;-8.586046696E-1
5.018830611E0;-4.711790085E-1;-7.846112251E-1;-2.142497301E-1
5.037154220E0;-8.803358078E-1;-9.605674744E-1;1.279353857E0
5.055470748E0;-1.061008453E0;-1.302952290E0;4.614542723E-1
5.073780074E0;-1.745349884E0;-1.235485077E0;-2.372864485E-1
5.092092574E0;-1.483157158E0;-8.579535484E-1;-1.107713699E0
5.110399276E0;-1.153203487E0;-6.255540848E-1;-1.533645272E0
5.128717879E0;-1.264509201E0;-6.309566498E-1;-1.461382508E0
5.147030257E0;-1.184302807E0;-5.529866219E-1;-1.077726603E0
5.165342757E0;-3.510098457E-1;-4.067783356E-1;-7.798829079E-1
5.183655013E0;2.896490097E-1;-2.923831940E-1;-2.400565147E-1
5.201967879E0;5.716471672E-1;-1.657958031E-1;2.874194384E-1
5.220280318E0;8.381810188E-1;-3.022575378E-2;4.091937542E-1
5.238591354E0;1.068978786E0;9.002923965E-2;6.479361057E-1
5.256905257E0;1.308279991E0;3.673448563E-1;9.494593143E-1
5.275217818E0;1.308104038E0;5.600285530E-1;7.204966545E-1
5.293530318E0;1.059292316E0;6.406650543E-1;4.613447189E-1
5.311842818E0;6.678986549E-1;5.109477043E-1;2.100627422E-1
5.330155318E0;4.273695946E-1;4.984869957E-1;1.916732788E-1
5.348468123E0;4.816646576E-1;6.654095650E-1;1.202421188E-1
5.366780318E0;6.160092354E-1;8.485550880E-1;1.250896454E-1
5.385092513E0;5.916442871E-1;8.471064568E-1;2.668437958E-1
5.403393904E0;4.959402084E-1;7.870407104E-1;6.396434307E-1
5.421718062E0;5.053291321E-1;7.250471115E-1;9.531548023E-1
5.440031234E0;4.714837074E-1;6.588945389E-1;1.227474570E0
5.458342818E0;2.270665169E-1;4.695320129E-1;1.296599388E0
5.476655318E0;-5.187273026E-2;4.370708466E-1;1.251105309E0
5.494968428E0;-1.246142387E-1;3.049616814E-1;9.489519596E-1
5.513280379E0;-1.990365982E-1;-9.713125229E-2;8.329668045E-1
5.531592757E0;-1.071248055E-1;-3.340239525E-1;1.071299314E0
5.549905318E0;3.749394417E-1;-2.914705276E-1;1.241383314E0
5.568219527E0;6.748919487E-1;-1.956176758E-1;1.137547493E0
5.586530318E0;5.347909927E-1;-1.659936905E-1;8.326308727E-1
5.604842818E0;1.138319969E-1;-1.063623428E-1;5.061569214E-1
5.623150618E0;-2.762899399E-1;-5.926084518E-2;2.652487755E-1
5.641467757E0;-3.777980804E-1;-2.219376564E-1;5.874681473E-2
5.659780562E0;-4.682040215E-1;-4.747705460E-1;-7.707858086E-2
5.678092879E0;-5.831799507E-1;-7.624959946E-1;-2.227265835E-1
5.696406234E0;-2.843451500E-1;-8.538756371E-1;-3.940193653E-1
5.714718123E0;-2.283639908E-1;-9.146394730E-1;-3.639051914E-1
5.733030318E0;-4.126639366E-1;-9.661092758E-1;-5.826277733E-1
5.751338179E0;-5.535545349E-1;-9.011454582E-1;-5.802111626E-1
5.769655562E0;-6.185855865E-1;-7.027034760E-1;-2.280924320E-1
5.787968306E0;-4.176826477E-1;-4.024691582E-1;-1.126580238E-1
5.806280379E0;-2.666978836E-1;-1.182351112E-1;-1.554179192E-1
5.824587203E0;-1.778683662E-1;8.114576340E-2;-3.005836010E-1
5.842905379E0;-2.587022781E-1;2.079219818E-1;-3.348603249E-1
5.861218367E0;-2.862811089E-1;3.376030922E-1;-2.464358807E-1
5.879525496E0;-3.013930321E-1;3.456578255E-1;-2.313971519E-2
5.897842818E0;-2.549228668E-1;3.478970528E-1;2.681241035E-1
5.916155562E0;-1.615428925E-1;2.022404671E-1;7.133607864E-1
5.934468428E0;1.220812798E-1;6.464147568E-2;1.005796432E0
5.952780623E0;3.289866447E-1;2.706527710E-3;1.151854515E0
5.971093062E0;4.342293739E-1;6.826925278E-2;1.024765253E0
5.989405562E0;4.324264526E-1;2.254643440E-1;7.973277569E-1
6.007717452E0;5.096797943E-1;3.178958893E-1;5.464441776E-1
6.026030562E0;4.548606873E-1;4.304928780E-1;5.816547871E-1
6.044343062E0;5.102386475E-1;4.616761208E-1;5.536565781E-1
6.062655440E0;4.403829575E-1;4.341979027E-1;5.032687187E-1
6.080968123E0;4.004111290E-1;3.375773430E-1;3.117582798E-1
6.099280623E0;4.509310722E-1;1.661195755E-1;1.925950050E-1
6.117593306E0;5.271534920E-1;-4.680681229E-2;2.722597122E-1
6.135905501E0;5.615344048E-1;-1.848855019E-1;2.356243134E-2
6.154218367E0;5.733232498E-1;-1.969733238E-1;-3.962519169E-1
6.172530867E0;4.641962051E-1;-1.254100800E-1;-6.923444271E-1
6.190843367E0;2.884216309E-1;-1.604347229E-1;-9.890320301E-1
6.209156966E0;-1.928958893E-1;-1.236252785E-1;-8.067381382E-1
6.227468550E0;-4.505014420E-1;-2.629470825E-2;-6.569242477E-1
6.245780745E0;-5.180878639E-1;8.380651474E-2;-4.568574429E-1
6.264093489E0;-5.602941513E-1;1.231818199E-1;-2.977919579E-1
6.282405745E0;-5.163688660E-1;8.223247528E-2;-1.155147552E-1
6.300718733E0;-3.875603676E-1;3.560876846E-2;2.375924587E-1
6.319030745E0;-3.263473511E-2;4.403114319E-3;3.655500412E-1
6.337344527E0;1.905303001E-1;2.138471603E-2;3.918957710E-1
6.355655745E0;2.218236923E-1;-4.242134094E-2;2.484698296E-1
6.373968611E0;1.580910683E-1;-1.080465317E-2;1.041436195E-1
6.392279159E0;2.148489952E-1;8.215379715E-2;-1.045970917E-1
6.410593245E0;1.007800102E-1;5.014610291E-2;-2.905886173E-1
6.428905806E0;-5.318737030E-2;-6.206560135E-2;-2.543292046E-1
6.447217635E0;5.054473877E-4;-1.402616501E-1;-2.343659401E-1
6.465518843E0;1.737666130E-1;-9.003353119E-2;-3.850317001E-2
6.483843367E0;3.761177063E-1;5.652761459E-2;1.576161385E-2
6.502156050E0;3.449969292E-1;1.522798538E-1;-4.287052155E-2
6.520459335E0;2.874464989E-1;2.471675873E-1;-9.521389008E-2
6.538776900E0;3.183012009E-1;2.935376167E-1;1.448750496E-2
6.557082076E0;2.290511131E-1;2.946982384E-1;4.326696396E-1
6.575405806E0;1.296901703E-1;2.514486313E-1;7.900538445E-1
6.593718855E0;8.489131927E-2;2.332234383E-1;9.492144585E-1
6.612031111E0;-6.504631042E-2;2.791628838E-1;8.636012077E-1
6.630331954E0;-2.491660118E-1;3.428349495E-1;7.205247879E-1
6.648654890E0;-3.709640503E-1;3.222026825E-1;6.008121967E-1
6.666968794E0;-2.898206711E-1;1.695752144E-1;4.022307396E-1
6.685280989E0;-1.291031837E-1;-9.225368500E-3;5.067634583E-1
6.703593489E0;6.992244720E-2;8.831977844E-3;4.088976383E-1
6.721905989E0;8.283996582E-2;1.539087296E-2;2.558183670E-1
6.740219100E0;-4.135560989E-2;-1.123104095E-1;3.382577896E-1
6.758530989E0;5.720233917E-2;-8.366203308E-2;5.491545200E-1
6.776844771E0;2.168273926E-1;6.522607803E-2;5.616488457E-1
6.795156050E0;2.022647858E-1;3.777189255E-1;5.996685028E-1
6.813468855E0;3.099107742E-2;5.872664452E-1;6.158156395E-1
6.831784041E0;9.563827515E-2;5.954294205E-1;8.204448223E-1
6.850094955E0;3.882117271E-1;5.469355583E-1;9.510207176E-1
6.868406111E0;9.041562080E-1;3.988361359E-1;6.994118690E-1
6.886719039E0;1.193603039E0;-1.042652130E-2;4.128749371E-1
6.905019088E0;1.022523880E0;-3.218684196E-1;2.266356945E-1
6.923343489E0;1.221987247E0;-1.680102348E-1;7.821798325E-3
6.941656356E0;1.294249535E0;3.549098969E-3;-1.105570793E-1
6.959968794E0;9.515538216E-1;-7.121038437E-2;-2.494211197E-1
6.978282516E0;5.558085442E-1;-1.926617622E-1;-2.250709534E-1
6.996590865E0;4.214076996E-1;-4.374828339E-1;2.759094238E-1
7.014906295E0;3.849053383E-1;-8.697266579E-1;6.846699715E-1
7.033214461E0;8.022036552E-1;-1.177451611E0;6.051380634E-1
7.051531295E0;8.859243393E-1;-1.295466900E0;6.913459301E-1
7.069843734E0;3.323926926E-1;-1.162759781E0;7.836508751E-2
7.088155135E0;6.972408295E-2;-7.906432152E-1;-7.437732220E-1
7.106469893E0;-5.704641342E-2;-9.452209473E-1;-1.002721071E0
7.124781295E0;1.640224457E-1;-6.929183006E-1;-1.711951494E0
7.143083419E0;5.603046417E-1;-2.437982559E-1;-1.929628849E0
7.161395369E0;9.810566902E-1;3.844594955E-2;-1.371969223E0
7.179709822E0;4.314322472E-1;2.464118004E-1;-4.345681667E-1
7.198019881E0;-4.211277962E-1;4.231920242E-1;-3.972144127E-1
7.216344650E0;-9.344496727E-1;1.064493656E0;-1.717262268E-1
7.234656539E0;-8.920445442E-1;1.485873222E0;-2.345812321E-1
7.252969100E0;-1.112347126E0;1.244340897E0;-4.261399508E-1
7.271281539E0;-2.711102009E0;1.341775417E0;-9.882677794E-1
7.289588240E0;-4.578627586E0;6.034135818E-1;-2.607631207E0
7.307895430E0;-5.341736794E0;-3.061532974E-1;-3.042234898E0
7.326210006E0;-5.368107796E0;-8.524141312E-1;-3.594340324E0
7.344519759E0;-5.324731350E0;-1.503402233E0;-3.940742970E0
7.362834273E0;-4.496324539E0;-2.304942131E0;-2.771934748E0
7.381145186E0;-4.633577347E0;-2.753070354E0;-1.910636425E0
7.399458174E0;-3.863487244E0;-2.699677944E0;-4.560377002E-1
7.417782699E0;-1.897105217E0;-2.313016891E0;4.178594947E-1
7.436094283E0;-8.506693840E-1;-1.572791576E0;1.447545052E0
7.454406478E0;8.081145287E-1;-1.375407696E0;2.044755220E0
7.472719649E0;2.698691845E0;-5.841374397E-1;3.330393791E0
7.491031600E0;4.177078724E0;1.429171562E-1;4.274734974E0
7.509344100E0;5.191293716E0;1.887989044E-2;4.577584743E0
7.527656844E0;5.343856812E0;2.491068840E-1;4.298763752E0
7.545969405E0;4.297565460E0;2.025866508E-1;2.710909367E0
7.564281783E0;2.068734646E0;2.465124130E-1;1.121071815E0
7.582594222E0;1.368956566E-1;-9.744691849E-2;4.139542580E-2
7.600906478E0;-2.345992565E0;-7.846693993E-1;7.182581425E-1
7.619220748E0;-4.842051983E0;-8.530082703E-1;1.064734459E0
7.637531539E0;-4.409224033E0;6.379222870E-1;8.626344204E-1
7.655844588E0;-2.636169434E0;7.056965828E-1;9.272315353E-2
7.674157027E0;-9.204173088E-1;-5.724534988E-1;-2.104747593E-1
7.692469588E0;-1.107912064E-1;-9.767975807E-1;3.573570848E-1
7.710781783E0;1.873322964E0;-9.639930725E-1;1.102008820E0
7.729093368E0;2.398725033E0;-1.280880451E0;1.655709267E0
7.747406661E0;1.944324017E0;-1.737391472E0;1.317849755E0
7.765722457E0;1.453379631E0;-2.081419468E0;7.878435254E-1
7.784032027E0;1.425675869E0;-2.107358456E0;6.652041674E-1
7.802339705E0;2.193144798E0;-1.984196663E0;-1.388831735E-1
7.820657027E0;2.171267033E0;-1.887253761E0;-9.823479652E-1
7.838969466E0;1.650529861E0;-1.862282753E0;-1.178272367E0
7.857280867E0;1.474610329E0;-8.206191063E-1;-1.355230808E0
7.875594527E0;1.447647095E0;-6.125435829E-1;-2.484340906E0
7.893906783E0;1.132428646E0;-3.878412247E-1;-2.431526899E0
7.912222701E0;1.452574730E-1;-2.829074860E-3;-9.909580946E-1
7.930526228E0;-1.100339890E-1;5.033302307E-2;-7.134648561E-1
7.948844527E0;7.051739693E-1;2.735366821E-1;-1.777333617E-1
7.967156050E0;9.417910576E-1;9.279642105E-1;1.022028923E0
7.985458296E0;2.241411209E-1;7.499036789E-1;6.548528671E-1
8.003782271E0;-8.559298515E-1;9.105720520E-1;-3.929382861E-1
8.022094527E0;-1.713341713E0;1.087069035E0;-4.741647840E-1
8.040407210E0;-1.401130199E0;1.487845421E0;-2.131198049E-1
8.058720992E0;-7.406964302E-1;1.695812702E0;1.278766394E-1
8.077032027E0;-5.876107216E-1;1.675845146E0;4.468728304E-1
8.095344832E0;-7.852354050E-1;1.291844368E0;7.355470061E-1
8.113657027E0;-6.657919884E-1;1.233542442E0;1.568663955E0
8.131970015E0;-3.346443176E-3;1.196801662E0;2.304562569E0
8.150279463E0;1.520600796E0;1.142974377E0;2.489266872E0
8.168594832E0;2.466584682E0;5.491213799E-1;2.620303154E0
8.186908370E0;2.815017700E0;-4.942026138E-1;2.755762100E0
8.205220076E0;2.395156860E0;-1.629684925E0;2.755674839E0
8.223532210E0;2.264971733E0;-2.887037754E0;3.500544071E0
8.241844527E0;1.583823204E0;-3.072199345E0;4.416897297E0
8.260158431E0;8.344111443E-1;-2.529394627E0;3.464035749E0
8.278470015E0;1.036334038E-1;-2.063237190E0;2.011616230E0
8.296782271E0;-7.066264153E-1;-1.533592224E0;7.608399391E-1
8.315094893E0;-6.899175644E-1;-5.203351974E-1;-1.196598530E0
8.333407515E0;4.038572311E-2;6.273279190E-1;-2.884835243E0
8.351723006E0;-5.438413620E-1;1.411330223E0;-3.646022320E0
8.370026472E0;-1.493068695E0;1.992781639E0;-3.969121695E0
8.388334029E0;-2.118016243E0;2.255977631E0;-5.415305614E0
8.406647261E0;-1.385291100E0;2.486374855E0;-2.782676697E0
8.424959518E0;-3.992471695E-1;2.115218163E0;-1.327132940E0
8.443271712E0;-3.896236420E-3;1.488131523E0;-1.373586655E-1
8.461584273E0;4.114680290E-1;9.355235100E-1;7.815318108E-1
8.479896407E0;3.219866753E-1;4.902024269E-1;1.969593883E0
8.498209700E0;-6.003260612E-1;5.056195259E-1;2.065819263E0
8.516524032E0;-1.252195358E0;4.952368736E-1;7.702929974E-1
8.534834273E0;-3.601771545E1;-2.877283096E-2;1.660146713E1
8.553146651E0;1.312837124E0;-3.896423817E0;-7.611032486E0
8.571459944E0;4.100159168E0;8.036680222E-1;-4.913631916E0
8.589772994E0;2.665464878E0;8.407607079E-1;-1.149142265E0
8.608084639E0;3.129090786E0;-4.775919914E-1;-2.416399002E0
8.626397200E0;2.150494576E0;-1.573804379E0;-1.146082878E-1
8.644723250E0;7.483677864E-1;-1.388870239E0;1.530675769E0
8.663032759E0;9.239654541E-1;-4.766874313E-1;2.454781532E-2
8.681345015E0;9.316129684E-1;5.094771385E-1;-2.117534637E0
8.699658980E0;1.783790588E-1;7.349352837E-1;-2.557260036E0
8.717970503E0;3.218183517E-1;9.436416626E-1;-1.965845108E0
8.736282882E0;-1.291532516E-1;8.057432175E-1;-1.104784727E0
8.754598189E0;-9.028244019E-1;1.311550140E0;-1.662111402E0
8.772907759E0;-1.882837772E0;1.944166183E0;-2.202328205E0
8.791220564E0;-2.017157555E0;2.661045551E0;-2.377074718E0
8.809529097E0;-2.867715359E0;2.824487209E0;-2.811849117E0
8.827846358E0;-4.231437683E0;1.936528683E0;-2.856859922E0
8.846158004E0;-3.822918892E0;6.531486511E-1;-7.182137966E-1
8.864470687E0;-3.205814838E0;8.159623146E-1;9.564048052E-2
8.882782698E0;-1.851768017E0;1.418454647E0;-1.331435680E0
8.901095504E0;-1.393038273E0;1.841090202E0;-3.073850870E0
8.919407943E0;-1.301819801E0;9.089326859E-1;-3.624652147E0
8.937721053E0;-9.511609077E-1;7.707338333E-1;-1.746011972E0
8.956033004E0;-8.722305298E-3;1.600548267E0;1.731286049E0
8.974342635E0;4.034308910E0;2.322864532E-2;1.478847861E0
8.992658004E0;-3.673458099E-2;-1.395287514E0;6.326202393E0
9.010964950E0;-5.015462875E0;1.446461201E0;1.261763573E0
9.029283004E0;-8.228230476E-2;2.185747147E0;-7.642231464E0
9.047595504E0;2.203403473E0;1.558507442E0;-1.335852718E1
9.065908187E0;1.158159852E0;4.131395340E0;-4.174357414E0
9.084220992E0;1.971405745E-1;5.218504906E0;4.681557417E-1
9.102530257E0;1.098546386E0;1.419025421E0;4.148999214E0
9.120845504E0;2.031652927E0;-8.327454567E0;3.016980171E0
9.139160018E0;-1.250604630E0;-2.502030563E1;4.260655403E0
9.157473922E0;3.389862776E-1;-1.940973663E1;5.139872551E0
9.175783248E0;4.913533926E-1;-3.021914482E0;4.609206200E0
9.194095992E0;8.840395212E-1;4.847395897E0;3.674255848E0
9.212403548E0;4.009823203E-1;7.265111446E0;2.909743071E0
9.230721053E0;2.228649855E-1;6.149985313E0;2.369679451E0
9.249033248E0;8.399460912E-1;2.093503952E0;2.187985182E0
9.267344466E0;1.513242483E0;-9.482707977E-1;2.572957277E0
9.285661666E0;1.854937673E0;-1.135272980E0;2.632453680E0
9.303971297E0;2.091357410E-1;5.436115265E-1;-3.508089304E0
9.322283431E0;-1.060680747E-1;2.863074303E0;-5.674487114E0
9.340596236E0;6.978888512E-1;1.912315369E0;-2.532957077E0
9.358908431E0;1.294819117E-1;-7.767629623E-1;-4.843840897E-1
9.377220382E0;-1.195476770E0;-1.302162170E0;1.612814426E0
9.395533492E0;-1.554945946E0;7.617187500E-2;2.469197512E0
9.413845992E0;-6.470901966E-1;1.602289677E0;1.820124269E0
9.432161666E0;2.939846516E-1;1.845170021E0;-7.874271274E-2
9.450471297E0;1.826467514E0;2.329775810E0;-6.884186864E-1
9.468784713E0;3.637136936E0;2.203999996E0;-8.192019463E-1
9.487095931E0;2.920039177E0;-3.167591095E-1;-1.662363291E0
9.505408431E0;2.502352953E0;-2.441506386E0;-3.247811317E0
9.523724288E0;2.209740639E0;-2.750543594E0;-3.745213747E0
9.542033736E0;-5.989131927E-1;-9.892368317E-1;-5.757291913E-1
9.560346236E0;-2.570365667E0;-3.256187439E-1;-2.160771847E0
9.578658736E0;-1.915397644E0;-7.130784988E-1;-2.992292881E0
9.596972762E0;-4.302463531E-1;-1.146698952E0;-2.197945595E0
9.615283980E0;1.618215799E0;1.963787079E-1;-1.813785553E0
9.633596541E0;3.416184664E0;3.862323284E0;-1.459546089E0
9.651904402E0;3.269145727E0;5.117138386E0;-4.585601091E-1
9.670221785E0;2.118549347E0;1.642951965E-1;6.083263755E-1
9.688534041E0;3.582257748E0;-1.133774757E0;-9.844862223E-1
9.706846480E0;4.506064892E0;-9.322710037E-1;-3.716878414E0
9.725158919E0;4.374413967E0;-4.472103119E-1;-4.838477135E0
9.743471724E0;3.729320526E0;-2.496351242E0;-2.973655701E0
9.761770308E0;4.823438644E0;-1.476931572E0;-2.691528797E-1
9.780088790E0;4.821328163E0;-1.598188400E0;7.601854205E-1
9.798398909E0;3.403547049E0;-1.836051941E0;5.368098617E-3
9.816721724E0;1.835478783E0;-1.953980446E0;-4.597094357E-1
9.835034224E0;8.165802956E-1;-2.670402527E0;2.703135610E-1
9.853341841E0;-9.300248623E-1;-2.851742744E0;2.907151699E0
9.871660201E0;-3.509826422E0;-2.901450157E0;3.456140995E0
9.889971968E0;-3.777139902E0;-2.873491287E0;1.789866924E0
9.908283064E0;-1.602608204E0;-2.660808563E0;2.192382812E-1
9.926596663E0;1.299381256E-4;-1.132346153E0;-1.472718716E-1
9.944909224E0;8.276786804E-1;-3.722171783E-1;7.196471691E-1
9.963222029E0;1.392068863E0;-8.284921646E-1;1.119590282E0
9.981537154E0;1.837850571E0;-8.017511368E-1;1.656524658E0
9.999846968E0;1.739444733E0;-8.332252502E-3;2.707887888E0
1.001815947E1;1.476165414E0;8.203740120E-1;3.744269133E0
1.003646861E1;8.518551588E-1;2.298256874E0;4.396657944E0
1.005478453E1;-3.640714884E-1;3.455301285E0;4.523664474E0
1.007309703E1;-1.072190762E0;3.589101315E0;3.987692833E0
1.009140947E1;-1.579548717E0;2.822372437E0;3.468588591E0
1.010972343E1;-1.845728159E0;2.107567787E0;3.332581758E0
1.012803453E1;-1.180370450E0;3.065261364E0;3.020856619E0
1.014634477E1;-7.646185160E-1;3.682933807E0;2.474080563E0
1.016465947E1;-9.915618300E-1;3.173489094E0;1.055997133E0
1.018297221E1;-1.376616597E0;2.487761974E0;-7.231311798E-1
1.020128422E1;-1.783192515E0;1.675642967E0;-2.079814434E0
1.021959257E1;-1.818728685E0;-1.021089554E-1;-4.613265038E0
1.023791069E1;-1.769000888E0;-2.727725983E0;-6.446559906E0
1.025622227E1;-9.875869751E-1;-4.489933014E0;-6.404916763E0
1.027453477E1;9.530773163E-1;-3.499973297E0;-4.651943684E0
1.029284233E1;1.946702123E0;-2.053756714E-1;-3.647372961E0
1.031115971E1;1.701748848E0;3.113327503E0;-3.010554790E0
1.032946879E1;1.029203176E0;1.990847588E0;-3.398132563E0
1.034778465E1;8.110229969E-1;-3.941518784E0;-3.383347988E-1
1.036609721E1;2.519921064E-1;-8.235383034E0;4.608963490E0
1.038440996E1;2.605642080E-1;-7.302557945E0;7.274186134E0
1.040272246E1;1.426632643E0;-2.738849640E0;4.744571686E0
1.042102891E1;1.597479224E0;1.430007458E0;2.731593132E0
1.043934715E1;-5.454155207E-1;1.658258438E0;4.497903347E0
1.045765971E1;-1.540186167E0;4.369163513E-2;4.556926727E0
1.047597270E1;-1.432414770E0;-1.312820435E0;4.254661083E0
1.049428502E1;-2.977930307E-1;-1.036227226E0;2.967873573E0
1.051259746E1;1.256278872E0;-6.774330139E-2;1.524768233E0
1.053090996E1;1.680460215E0;7.702245712E-1;1.307439089E0
1.054922160E1;1.124208689E0;1.341494560E0;9.076910019E-1
1.056753795E1;3.414679766E-1;2.364656925E0;4.855753183E-1
1.058584746E1;-5.388739109E-1;2.999836922E0;-1.304331422E-2
1.060416020E1;-8.281621933E-1;3.368916035E0;-2.201846987E-1
1.062246892E1;-6.963087320E-1;2.857160568E0;-2.016534060E-1
1.064078490E1;-1.038583040E0;1.813710213E0;-4.373797774E-2
1.065909764E1;-8.488324881E-1;8.882226944E-1;-9.377202392E-1
1.067740898E1;7.778126001E-2;-1.048603058E-1;-1.157104731E0
1.069572020E1;2.641962528E0;2.889137268E-1;-2.388640165E0
1.071402367E1;3.028616428E0;-2.085685730E-3;-3.479276180E0
1.073233574E1;4.275935173E0;-8.976469040E-1;-3.289829493E0
1.075064989E1;3.809709311E0;-3.431183815E0;-2.339209557E0
1.076897325E1;2.498644829E0;2.024707794E-1;-1.179672003E0
1.078728429E1;1.773051500E0;3.193653107E0;-5.445950627E-1
1.080558397E1;1.924537063E0;3.230995655E0;-1.746397376E0
1.082389934E1;1.257533669E0;5.797929764E-1;-3.629425526E0
1.084221226E1;1.349888563E0;4.471960068E-1;-4.332499981E0
1.086052489E1;2.286572695E0;7.715101242E-1;-3.753913403E0
1.087883574E1;2.837941885E0;5.791501999E-1;-2.975084782E0
1.089714922E1;3.451378822E0;8.605871201E-1;-2.488261223E0
1.091547319E1;3.636760712E0;-1.125898361E-1;-1.926769018E0
1.093378569E1;3.540406466E0;-2.371156693E0;-1.495579004E0
1.095209794E1;2.968170166E0;-5.358158112E0;-1.740395069E0
1.097040758E1;2.675222397E0;-8.055768013E0;-5.120820403E-1
1.098872349E1;1.958137512E0;-8.385735512E0;1.472763181E0
1.100703667E1;-3.960545063E-1;-7.973365784E0;3.912824869E0
1.102533629E1;-5.233346939E0;-9.171942711E0;5.469275475E0
1.104366069E1;-9.204181671E0;-7.714370728E0;3.086923122E0
1.106196867E1;-8.631055832E0;-3.669176102E0;-1.605439186E-2
1.108028593E1;-5.678053856E0;-9.084043503E-1;-6.862740517E-1
1.109859825E1;-3.379403114E0;2.644376755E-1;-1.093170643E-1
1.111691069E1;-7.541600466E-1;9.976081848E-1;1.334292173E0
1.113522374E1;1.936514616E0;9.568171501E-1;3.046308041E0
1.115353905E1;2.484358788E0;3.353500366E-2;3.451388836E0
1.117184819E1;1.942349076E0;6.741933823E-1;4.036160946E0
1.119015489E1;1.792069554E0;2.524824619E0;4.842176437E0
1.120847374E1;1.247578621E0;3.854393482E0;5.333826065E0
1.122678569E1;9.166346192E-1;4.580426693E0;5.756532192E0
1.124509843E1;3.263975382E-1;4.360153198E0;5.655595303E0
1.126341087E1;-2.305401564E-1;4.348580837E0;4.938619614E0
1.128172362E1;-8.525354862E-1;4.505738258E0;2.576098919E0
1.130003612E1;-1.281884670E0;3.662897587E0;-8.797092438E-1
1.131834898E1;-7.054525018E-1;2.451526642E0;-4.192240715E0
1.133666093E1;3.220765591E-1;8.445720673E-1;-5.854679108E0
1.135497368E1;-2.527344227E-2;-1.203518867E0;-5.349467754E0
1.137328624E1;3.921275139E-1;-4.068092346E0;-3.506401062E0
1.139159831E1;-2.169863224E0;-4.817296028E0;-2.593468189E0
1.140991112E1;-1.004233122E0;-5.606355667E-1;-3.329333782E0
1.142822392E1;-3.727728128E-1;3.705470085E0;-2.215216398E0
1.144653642E1;-4.945228696E-1;2.686268330E0;-2.121299744E0
1.146484477E1;-1.991966128E0;-4.148682594E0;-3.436798573E0
1.148316118E1;-3.956425190E0;-1.027445889E1;8.625793457E-1
1.150147423E1;-3.571931839E0;-1.200953197E1;4.559314728E0
1.151978734E1;-3.826943040E-1;-5.898344994E0;5.485342979E0
1.153809898E1;3.951185942E-2;-7.780542374E-1;7.131365299E0
1.155641234E1;1.028925657E0;2.537046432E0;8.370438576E0
1.157472417E1;2.384903669E0;3.882452011E0;7.676884651E0
1.159303648E1;2.883600950E0;3.273667812E0;6.274177551E0
1.161134892E1;2.768094301E0;1.538664818E0;5.213693619E0
1.162966167E1;2.733219147E0;-3.341064453E-1;3.220533609E0
1.164797569E1;1.022877216E0;-5.869083405E-1;-1.378423691E0
1.166628630E1;-1.025106311E0;1.702570915E0;-2.198846340E0
1.168459892E1;-1.575068712E0;3.632081032E0;-2.227828979E0
1.170290745E1;-9.992041588E-1;4.204844475E0;-2.014122009E0
1.172122417E1;-1.139323354E0;3.276027679E0;-1.445431828E0
1.173953307E1;-1.479564428E0;8.820867538E-1;-3.815400600E-1
1.175784917E1;-3.152110577E0;-1.727465630E0;3.842284679E-1
1.177616167E1;-3.586050272E0;-3.011924744E0;1.472665519E-1
1.179447447E1;-5.910451412E-1;-9.233140945E-1;1.315588653E-1
1.181278667E1;1.576773405E0;4.121303558E-1;7.034952044E-1
1.183109337E1;2.477974653E0;1.092519760E0;2.926076055E-1
1.184941191E1;3.132807255E0;1.487081528E0;-9.748781919E-1
1.186772465E1;3.844885111E0;1.649928570E0;-3.366010189E0
1.188603691E1;3.758295059E0;1.325824738E0;-4.124147415E0
1.190434941E1;4.144474030E0;9.370832443E-1;-3.233507872E0
1.192266222E1;4.534356594E0;9.565258026E-1;-2.299717426E0
1.194097496E1;3.001034021E0;3.746471405E-1;-1.472628593E0
1.195928569E1;2.011401653E0;-1.901760101E-1;-1.043504834E0
1.197760228E1;9.557995796E-1;-7.041645050E-1;-2.015782595E0
1.199591197E1;4.294247627E-1;-1.141028404E0;-4.068925381E0
1.201422472E1;7.383017540E-1;-1.093509674E0;-5.225252151E0
1.203253990E1;2.434581995E0;-1.844698906E0;-3.927832603E0
1.205084965E1;5.431618690E0;-3.314406395E0;-2.717080355E0
1.206916215E1;5.957671642E0;-3.357650757E0;-1.380969286E0
1.208747380E1;4.472043991E0;-2.448815346E0;6.378788948E-1
1.210578691E1;2.464489222E0;-1.858544350E0;2.845117807E0
1.212409965E1;2.131843567E-1;-2.462083817E0;4.846111774E0
1.214240001E1;-1.392365098E0;-5.325026512E0;4.874141693E0
1.216071379E1;-2.577977180E0;-9.583243370E0;1.401228666E0
1.217902580E1;-2.532097101E0;-9.667514801E0;-6.122083664E-1
1.219733891E1;-1.342690945E0;-4.991869926E0;2.721834183E-1
1.221565190E1;-3.220112324E-1;-6.536474228E-1;1.705186009E0
1.223396410E1;-8.182220459E-1;1.582015514E0;2.356866598E0
1.225227763E1;-8.001892567E-1;2.277340412E0;3.062684059E0
1.227059007E1;-1.164996624E-1;2.723209381E0;3.788332462E0
1.228890172E1;6.325911283E-1;3.190209389E0;4.422987461E0
1.230721410E1;1.128924608E0;3.747364998E0;5.044314861E0
1.232552733E1;1.257245421E0;4.451221943E0;5.498570442E0
1.234384068E1;1.074958324E0;5.021739960E0;5.891696453E0
1.236215135E1;3.263853788E-1;5.242780685E0;5.942882538E0
1.238047832E1;-5.898014307E-1;5.144432068E0;5.596220970E0
1.239877586E1;-1.504816413E0;4.770077705E0;3.382603645E0
1.241710142E1;-2.067398071E0;4.039691448E0;-5.981869698E-1
1.243541264E1;-1.558391213E0;2.951368332E0;-4.718654156E0
1.245372551E1;1.221673250E0;1.112708092E0;-7.346683025E0
1.247203398E1;-2.017388344E-1;-6.016376495E0;-5.196273327E0
1.249035045E1;-1.744033217E0;-8.646504402E0;-3.628381729E0
1.250866289E1;-1.457327724E0;-4.906087875E0;-3.357857227E0
1.252697539E1;-1.346090317E0;-2.359876633E-1;-2.952517509E0
1.254528758E1;-1.855806708E0;3.148907185E0;-2.609221458E0
1.256360039E1;-3.284487009E0;3.887634277E-1;-4.516095638E0
1.258191289E1;-3.221630335E0;-6.673210144E0;-3.830280781E0
1.260021983E1;-6.951256990E-1;-9.381704330E0;7.190781116E0
1.261853789E1;2.772148609E0;-8.239301682E0;9.795381546E0
1.263685069E1;4.639095783E0;-2.181377411E0;6.194953918E0
1.265516313E1;3.360134602E0;2.265884399E0;3.733406305E0
1.267347850E1;2.586861849E0;2.422819614E0;4.161955357E0
1.269178789E1;2.879761219E0;8.967285156E-1;5.822295189E0
1.271010356E1;3.392002583E0;2.169713974E-1;6.385368347E0
1.272841209E1;4.392861366E0;6.342353821E-1;4.411620140E0
1.274672588E1;4.253001690E0;1.159749985E0;2.401347160E0
1.276503813E1;1.124931812E0;9.626522064E-1;-3.437669277E-1
1.278335088E1;-1.575806260E0;4.545955658E-1;-2.739900351E0
1.280166283E1;-2.833014965E0;3.559732437E-1;-3.406703711E0
1.281997612E1;-3.068306208E0;7.220020294E-1;-2.896473408E0
1.283828838E1;-2.690999269E0;1.345234871E0;-1.431972504E0
1.285660252E1;-1.367665291E0;1.756661415E0;-1.031002283E0
1.287491338E1;-4.559686184E-1;1.930038452E0;-1.001895547E0
1.289322642E1;-3.771781921E-2;1.932990074E0;-7.512565851E-1
1.291154082E1;1.427085400E-1;1.803276539E0;-5.323040485E-2
1.292985228E1;9.830906391E-1;1.583366394E0;3.525227308E-2
1.294816356E1;1.790331125E0;9.803905487E-1;-1.113102436E0
1.296647453E1;2.527492046E0;4.783716202E-1;-2.694892645E0
1.298478740E1;3.697440863E0;7.404794693E-1;-3.547516584E0
1.300309825E1;4.691190720E0;7.167606354E-1;-3.229642868E0
1.302140343E1;5.155688763E0;4.591550827E-1;-2.279937267E0
1.303971025E1;4.464734077E0;4.269695282E-1;-1.950302720E0
1.305804173E1;2.523705721E0;-5.942821503E-2;-3.069461584E0
1.307635204E1;6.410121918E-1;-1.221631050E0;-3.816951275E0
1.309466386E1;9.839074612E-1;-2.249348640E0;-3.002646208E0
1.311297209E1;3.773977280E0;-3.584991455E0;-2.282352448E0
1.313128892E1;5.086823463E0;-3.476700783E0;-1.687590599E0
1.314959721E1;4.269446373E0;-2.006078720E0;-1.219518661E0
1.316791270E1;3.289942265E0;-1.204197884E0;-4.982319474E-1
1.318622661E1;2.018814564E0;-1.734043121E0;4.933044612E-1
1.320453935E1;-6.723403931E-5;-4.159677505E0;2.434173107E0
1.322284856E1;-2.723978996E0;-7.795217514E0;4.033918858E0
1.324115782E1;-5.281462193E0;-1.019341183E1;3.414146423E0
1.325947301E1;-5.326143265E0;-7.281770706E0;2.054813623E0
1.327778905E1;-3.967681885E0;-3.365164757E0;1.573162675E0
1.329610161E1;-2.210025787E0;-1.040989876E0;7.792756557E-1
1.331441405E1;-1.092673421E0;4.156284332E-1;6.428217888E-1
1.333272691E1;4.272651672E-2;1.071971893E0;1.782222033E0
1.335103911E1;8.029892445E-1;1.232804775E0;3.611303329E0
1.336935045E1;1.259104490E0;1.944641590E0;4.675858498E0
1.338766405E1;1.277218461E0;3.204258919E0;5.006727219E0
1.340597716E1;1.242600679E0;4.134516716E0;5.535300255E0
1.342428929E1;8.573297262E-1;4.671338558E0;5.748689175E0
1.344260161E1;1.355599165E-1;4.942563057E0;5.774330616E0
1.346091466E1;-1.024894357E0;4.966017246E0;5.418400764E0
1.347922710E1;-1.857284546E0;4.795956612E0;4.063401699E0
1.349754051E1;-2.167246342E0;4.346333504E0;8.507089615E-1
1.351585191E1;-1.874214411E0;3.433008194E0;-2.996791840E0
1.353416429E1;5.260224342E-1;2.444571495E0;-6.114317894E0
1.355247691E1;2.389189720E0;-8.302526474E-1;-6.049202442E0
1.357078960E1;1.671091795E0;-5.153755188E0;-1.890529156E0
1.358910210E1;-5.025141239E-1;-5.058302879E0;-1.178969860E0
1.360741752E1;-2.203161955E0;-2.794833183E0;-3.085502148E0
1.362573009E1;-2.553289652E0;9.446868896E-1;-2.751679897E0
1.364403960E1;-3.361773491E0;3.997624874E0;-1.119736195E0
1.366234782E1;-4.245318413E0;4.019468307E0;-9.423725605E-1
1.368065312E1;-3.229780674E0;-3.841896057E0;-7.121013641E0
1.369897606E1;-4.708999634E0;-1.184178066E1;3.960279703E0
1.371728892E1;-3.944752216E-1;-1.418516636E1;6.918083191E0
1.373560240E1;2.676690102E0;-7.100655556E0;5.566783905E0
1.375391508E1;2.323015690E0;-6.897163391E-1;6.094618797E0
1.377222771E1;2.554799795E0;1.339614391E0;7.098320961E0
1.379054008E1;2.589990616E0;2.222585678E0;7.895067215E0
1.380885142E1;3.481034994E0;2.446528912E0;7.068799496E0
1.382716417E1;6.790427208E0;2.484959126E0;4.828125000E0
1.384547783E1;8.346185684E0;2.791080475E0;6.093704700E-1
1.386378978E1;3.880531549E0;1.713666916E0;-2.221956968E0
1.388209776E1;1.604321957E0;7.467203140E-1;-4.106954098E0
1.390041533E1;-7.962090969E-1;5.269927979E-1;-3.766148090E0
1.391872807E1;-3.253928423E0;1.950378418E-1;-3.010789156E0
1.393704039E1;-4.455626011E0;2.269859314E-1;-2.194702625E0
1.395535283E1;-3.832576513E0;9.183588028E-1;-7.226592898E-1
1.397366801E1;-3.390007973E0;1.492161751E0;-2.426932007E-1
1.399198106E1;-1.813416481E0;1.721775055E0;-1.013566136E0
1.401028429E1;-3.563601971E-1;1.628210068E0;-1.158079863E0
1.402860283E1;9.743437767E-1;1.371665001E0;-4.552773833E-1
1.404691533E1;3.360395908E0;1.180003166E0;-9.420608282E-1
1.406522056E1;4.668623924E0;1.101878166E0;-2.024832249E0
1.408354027E1;5.017945290E0;1.363603592E0;-3.463066339E0
1.410185307E1;4.297637939E0;1.342394829E0;-3.813493729E0
1.412016557E1;3.641611099E0;1.073397636E0;-2.724390030E0
1.413847960E1;3.189102888E0;6.689176559E-1;-1.998400092E0
1.415679057E1;1.995292187E0;-4.076070786E-1;-1.986169577E0
1.417510313E1;6.721477509E-1;-1.481338501E0;-3.071628094E0
1.419341563E1;7.509775162E-1;-1.737273216E0;-3.698950291E0
1.421172862E1;4.125165939E0;-2.647598267E0;-2.653770447E0
1.423004063E1;7.118678093E0;-3.421528816E0;-1.026854277E0
1.424835313E1;6.831563950E0;-2.226431847E0;3.386768699E-1
1.426665477E1;4.509087563E0;-3.968725204E-1;1.490298271E0
1.428496678E1;1.318367958E0;-1.130827904E0;1.690745354E0
1.430327952E1;-1.593971729E0;-3.792848587E0;3.050250292E0
1.432158989E1;-4.214897633E0;-8.559743881E0;3.769753933E0
1.433990428E1;-6.988851547E0;-1.195828342E1;6.326347589E-1
1.435821806E1;-6.145528793E0;-8.003285408E0;-1.156315207E0
1.437653032E1;-3.910606146E0;-3.114077568E0;6.435616016E-1
1.439484282E1;-2.055283546E0;-4.465169907E-1;1.582044125E0
1.441315514E1;-3.570919037E-1;3.436841965E-1;1.155539989E0
1.443146605E1;1.001485348E0;6.209630966E-1;1.968676567E0
1.444978032E1;2.218370914E0;1.024328232E0;3.390376091E0
1.446810387E1;2.969868660E0;2.037638187E0;4.084783554E0
1.448641698E1;2.858543873E0;3.285654068E0;4.791745663E0
1.450473155E1;2.391639709E0;4.434655190E0;5.301403046E0
1.452303642E1;9.274222851E-1;4.702303886E0;5.781580448E0
1.454135387E1;-8.095183372E-1;4.770210743E0;5.610425472E0
1.455966630E1;-1.553319812E0;4.865251064E0;5.193134308E0
1.457797789E1;-1.768520594E0;4.950514793E0;4.151228905E0
1.459629082E1;-2.121308327E0;4.552821636E0;1.324797630E0
1.461460380E1;-2.529002190E0;3.403637409E0;-2.365189552E0
1.463291630E1;-9.302756786E-1;2.586501122E0;-5.212784290E0
1.465122325E1;1.473351955E0;2.139396667E-1;-6.034374237E0
1.466953789E1;6.100382805E-1;-5.750499725E0;-3.825856686E0
1.468785380E1;4.150629044E-3;-6.158207893E0;-3.916062593E0
1.470616948E1;-1.010555983E0;-3.390320778E0;-3.379961491E0
1.472447929E1;-1.136837602E0;5.210971832E-2;-2.920818329E0
1.474279149E1;-1.282765627E0;3.699469566E0;-1.209542274E0
1.476110374E1;-1.629091501E0;6.419913769E0;3.688771725E-1
1.477941844E1;-3.181043148E0;4.425209999E0;1.310787201E-1
1.479772954E1;-1.706465602E0;-3.910478592E0;-4.426058769E0
1.481604155E1;-3.193604946E0;-1.425021172E1;1.144484329E1
1.483435448E1;1.667742014E0;-1.964895630E1;6.984558105E0
1.485266679E1;2.980959415E0;-7.632246017E0;1.802926302E0
1.487097978E1;6.052350998E-1;7.477798462E-1;2.486259699E0
1.488929179E1;8.740043640E-2;3.703442097E0;5.819833755E0
1.490760545E1;1.511678696E0;4.377445221E0;4.725962639E0
1.492591673E1;2.843368292E0;3.873075485E0;6.650663853E0
1.494422966E1;4.682868004E0;2.679593563E0;5.484115601E0
1.496253899E1;4.815443993E0;7.076177597E-1;2.154199362E0
1.498085478E1;1.358493090E0;-6.825666428E-1;-2.276919127E0
1.499916698E1;-1.322821975E0;-8.225383759E-1;-4.765477180E0
1.501747984E1;-2.689380169E0;-8.473777771E-2;-3.161881447E0
1.503579210E1;-2.739547729E0;7.489423752E-1;-1.196413517E0
1.505410741E1;-1.621667385E0;1.743652344E0;-2.496091425E-1
1.507241930E1;-8.827548027E-1;2.281204700E0;3.004703522E-1
1.509072404E1;-6.705517769E-1;2.351058006E0;4.963907599E-1
1.510904228E1;-9.264016151E-1;2.155514717E0;4.380995035E-2
1.512735478E1;-8.257420063E-1;1.297042847E0;-1.317848682E0
1.514566997E1;2.603704929E-1;3.821344376E-1;-2.420815229E0
1.516398009E1;2.094406843E0;3.138370514E-1;-2.536675215E0
1.518229210E1;3.816468239E0;9.418582916E-1;-2.296024561E0
1.520060478E1;4.996895790E0;1.136825562E0;-2.692959785E0
1.521891612E1;5.490513325E0;4.304304123E-1;-3.273625851E0
1.523722948E1;5.369826317E0;-1.358699799E-2;-3.265147686E0
1.525554222E1;4.266748428E0;1.058502197E-1;-3.064265728E0
1.527385496E1;2.347466230E0;5.248594284E-1;-2.622400761E0
1.529216289E1;6.610488892E-1;6.810197830E-1;-2.681428432E0
1.531048033E1;4.693226814E-1;1.962938309E-1;-3.066297531E0
1.532879259E1;2.507063866E0;-9.628410339E-1;-2.651744366E0
1.534710521E1;4.665290356E0;-2.279535294E0;-1.669621825E0
1.536541771E1;4.607432365E0;-2.892725945E0;-1.684222221E-1
1.538373057E1;3.554430485E0;-3.119126320E0;1.363400698E0
1.540204246E1;1.477760553E0;-3.736881256E0;2.172650576E0
1.542035673E1;-1.857924104E0;-5.726801872E0;3.544831038E0
1.543866789E1;-5.238410950E0;-8.967389107E0;2.760145664E0
1.545698057E1;-5.572073936E0;-1.045623302E1;-5.393837690E-1
1.547529295E1;-3.250095367E0;-6.488896370E0;-1.325343132E0
1.549360557E1;-2.005190372E0;-2.698831558E0;7.597453594E-1
1.551191832E1;-5.720419884E-1;-4.475965500E-1;1.614803314E0
1.553023070E1;3.723170757E-1;7.106795311E-1;1.801019430E0
1.554854423E1;7.442820072E-1;1.733927727E0;2.507089615E0
1.556685551E1;2.374744415E-1;3.003225803E0;3.539072990E0
1.558515630E1;2.581057549E-1;4.421673298E0;4.145890236E0
1.560348106E1;2.095000744E-1;5.232995033E0;4.868182182E0
1.562179326E1;3.658831120E-1;5.315491199E0;5.346910477E0
1.564010576E1;1.662384272E-1;5.051413536E0;5.597249985E0
1.565841832E1;-1.915463209E-1;4.523058891E0;5.663615704E0
1.567673216E1;-9.305204153E-1;3.855197430E0;5.323574066E0
1.569504039E1;-1.490151763E0;3.471601963E0;4.337817192E0
1.571335606E1;-1.781817913E0;3.303958893E0;2.464314938E0
1.573166368E1;-1.949601650E0;2.922077179E0;-1.106307030E0
1.574998125E1;-1.281056285E0;1.918047905E0;-4.976396084E0
1.576829356E1;3.910727501E-1;-9.451427460E-1;-7.224405766E0
1.578660570E1;1.038008213E0;-6.207560539E0;-6.057924271E0
1.580491875E1;7.802557945E-2;-8.402886391E0;-5.989852905E0
1.582322856E1;-1.563226223E0;-5.740185738E0;-5.321591854E0
1.584154326E1;-2.989082575E0;-4.539527893E-1;-3.363449574E0
1.585985020E1;-4.383466721E0;1.658378601E0;-3.525317430E0
1.587815764E1;-3.201630831E0;-3.334542274E0;-4.386065483E0
1.589647087E1;-2.471266985E0;-9.105587006E0;-1.012094021E0
1.591478276E1;7.660698891E-2;-9.319905281E0;9.204395294E0
1.593309605E1;2.606218338E0;-5.033151627E0;1.045126343E1
1.595140770E1;2.082405567E0;8.319263458E-1;7.205304146E0
1.596972081E1;1.004596710E0;4.101161480E0;4.839731216E0
1.598803319E1;7.704877853E-1;2.798363209E0;4.856017113E0
1.600634550E1;2.237008095E0;-3.664989471E-1;6.011761665E0
1.602466301E1;3.650814772E0;-1.926217079E0;6.551313400E0
1.604297075E1;4.644327641E0;-1.484406471E0;3.598162651E0
1.606128294E1;4.856750965E0;-6.352710724E-2;-1.775436521E0
1.607959605E1;1.842180729E0;8.286075592E-1;-4.462237835E0
1.609790745E1;-5.973358154E-1;6.283578873E-1;-2.889692307E0
1.611623204E1;-1.163171172E0;1.259935379E0;-1.673806906E0
1.613454405E1;-7.884671688E-1;2.200898170E0;-1.552757502E0
1.615285649E1;-7.316298485E-1;2.785624981E0;-9.972277880E-1
1.617116923E1;-4.306464195E-1;2.961585522E0;-6.452231407E-1
1.618947929E1;-2.809369564E-1;2.588170528E0;-3.804634511E-1
1.620779430E1;4.065616131E-1;1.902973175E0;-2.991413772E-1
1.622610649E1;1.498443604E0;1.381806374E0;-6.012924910E-1
1.624441930E1;1.903557062E0;1.080923080E0;-1.388223290E0
1.626272038E1;1.183139086E0;4.894714355E-1;-2.629124641E0
1.628103270E1;1.190409660E-1;-9.947299957E-2;-4.197994232E0
1.629934868E1;1.998591423E-2;1.760568619E-1;-4.719954967E0
1.631767094E1;1.184939623E0;5.925092697E-1;-3.959013700E0
1.633598222E1;2.524255991E0;2.908821106E-1;-2.755156517E0
1.635429448E1;3.838455439E0;-8.253192902E-2;-1.524379611E0
1.637260240E1;3.898387909E0;-1.484346390E-1;-1.065193772E0
1.639091966E1;3.189437151E0;-1.968860626E-1;-2.258327246E0
1.640923228E1;1.846755505E0;-1.459302902E-1;-4.359474659E0
1.642754466E1;1.745560884E0;-3.707189560E-1;-4.748848915E0
1.644585722E1;3.823095798E0;-1.465520859E0;-3.397564888E0
1.646416991E1;5.800107002E0;-2.687738419E0;-2.988971710E0
1.648248253E1;5.707523346E0;-2.411874771E0;-1.404046059E0
1.650078892E1;4.842855453E0;-1.817388535E0;1.585535288E0
1.651910747E1;2.901641846E0;-2.482781410E0;5.466431618E0
1.653742003E1;9.404373169E-1;-4.615287781E0;7.393437386E0
1.655573277E1;-1.823059797E0;-8.497843742E0;3.938466549E0
1.657404497E1;-2.830923557E0;-1.075616932E1;-5.770784616E-1
1.659235747E1;-1.707265377E0;-6.945485115E0;-9.716422558E-1
1.661067021E1;-8.011865616E-2;-1.858374596E0;8.970983028E-1
1.662898186E1;1.741175652E-1;1.170576096E0;1.757204294E0
1.664729424E1;5.379979610E-1;2.233567715E0;2.806892395E0
1.666560747E1;5.762832165E-1;2.699987888E0;3.659831285E0
1.668392021E1;1.288004398E0;3.448842049E0;3.953925133E0
1.670223241E1;1.734097362E0;4.299981594E0;4.434588432E0
1.672053343E1;1.921422124E0;4.382008553E0;4.881812096E0
1.673884575E1;1.642107844E0;4.063130379E0;5.409342289E0
1.675716930E1;5.216795206E-1;3.861763954E0;5.719378471E0
1.677548320E1;-8.445850611E-1;3.827669144E0;5.614548683E0
1.679379539E1;-1.822050810E0;3.562768936E0;4.524063110E0
1.681210802E1;-2.696379185E0;3.088188171E0;2.523852825E0
1.683042039E1;-3.113633633E0;2.547869682E0;1.693725586E-3
1.684873326E1;-2.552476645E0;1.772803307E0;-2.029036045E0
1.686704570E1;-1.003386974E0;3.103828430E-2;-3.059838772E0
1.688535796E1;-3.421950340E-1;-4.721967697E0;-3.047755718E0
1.690367076E1;-3.106534481E-1;-5.985831261E0;-4.963942528E0
1.692198320E1;-2.075087309E0;-3.273378372E0;-8.033632278E0
1.694029570E1;-2.750115395E-1;1.711966991E0;-5.870690346E0
1.695860930E1;5.195546150E-1;5.659704208E0;-1.794434071E0
1.697692076E1;1.864528656E-1;4.498036861E0;8.318829536E-1
1.699523350E1;1.716085434E0;-3.542097092E0;-5.981307030E-1
1.701354106E1;1.511740446E0;-1.113113213E1;1.375286865E1
1.703186174E1;-2.745107412E-1;-1.639655876E1;1.288796616E1
1.705017100E1;2.794547558E0;-9.197525024E0;2.905976057E0
1.706848369E1;1.686141253E0;5.086727142E-1;-2.621412039E0
1.708679704E1;-3.562898159E0;2.307687283E0;1.132842541E0
1.710509642E1;-3.760398865E0;1.348929405E0;3.230800152E0
1.712342119E1;-1.998255610E0;9.178628922E-1;2.675319195E0
1.714172917E1;1.268125534E0;2.318925858E-1;3.624668598E0
1.716004613E1;3.172794104E0;6.104364395E-1;2.500963688E0
1.717835844E1;3.078168631E0;1.770019531E0;2.069056988E0
1.719665745E1;7.703135014E-1;2.575016022E0;1.929559946E0
1.721498418E1;-1.125662804E0;2.992441654E0;4.172269106E-1
1.723329625E1;-5.017764568E-1;3.179322720E0;-1.598697782E0
1.725160893E1;5.367548466E-1;2.875395775E0;-2.070292234E0
1.726991539E1;1.578574896E0;2.564896107E0;-1.703911662E0
1.728823424E1;1.377573729E0;1.824233055E0;-2.217960119E0
1.730654619E1;1.093587160E0;8.336162567E-1;-3.848629713E0
1.732485893E1;6.605598927E-1;2.042932510E-1;-3.569470882E0
1.734317143E1;8.834891319E-1;4.859476089E-1;-2.571442604E0
1.736148424E1;1.402320862E0;1.102189064E0;-2.386664629E0
1.737979674E1;2.198193073E0;1.355637550E0;-2.861583471E0
1.739810802E1;3.104714870E0;8.626728058E-1;-3.087220669E0
1.741642259E1;3.892960787E0;5.069055557E-1;-2.318222284E0
1.743473448E1;4.081323624E0;4.699192047E-1;-1.225555778E0
1.745304668E1;2.728366137E0;-1.188850403E-2;-1.606854439E0
1.747136259E1;7.417094707E-1;-1.064360619E0;-3.683792353E0
1.748967192E1;1.384908438E0;-1.496401787E0;-4.730165958E0
1.750798466E1;5.021748543E0;-2.708469391E0;-3.385487080E0
1.752629594E1;8.020407677E0;-3.559615135E0;-1.724777937E0
1.754459624E1;7.173940659E0;-2.103032112E0;4.650574327E-1
1.756292216E1;4.951919556E0;-8.781890869E-1;2.144448519E0
1.758123497E1;2.510879517E0;-1.564684868E0;3.000957966E0
1.759954436E1;-1.341773272E0;-4.683319092E0;4.448513985E0
1.761785960E1;-5.825077534E0;-1.020789528E1;3.692084312E0
1.763617216E1;-7.842359543E0;-1.365120220E1;-3.836363554E-1
1.765448497E1;-4.381654263E0;-8.046232224E0;-4.744396210E-1
1.767279716E1;-2.123015404E0;-2.324898720E0;9.846818447E-1
1.769110966E1;-1.263383508E0;3.999900818E-1;1.598484755E0
1.770942577E1;-2.223851681E-1;1.108944416E0;2.191829681E0
1.772773613E1;5.233869553E-1;1.666445255E0;3.116132736E0
1.774604716E1;7.896544933E-1;2.502099991E0;4.138913631E0
1.776435991E1;1.069831848E0;3.922682285E0;4.982858658E0
1.778266453E1;1.168526411E0;5.110541344E0;5.573807716E0
1.780098521E1;1.068286180E0;5.596203804E0;5.950796604E0
1.781928599E1;6.801785231E-1;5.392631531E0;6.136834621E0
1.783759819E1;-1.859916449E-1;5.362289429E0;6.328987122E0
1.785591295E1;-1.056012392E0;5.349084377E0;6.162941933E0
1.787422465E1;-1.624908924E0;4.884269714E0;4.952169895E0
1.789253746E1;-1.962078691E0;4.328342438E0;2.252969742E0
1.791085185E1;-1.880247116E0;3.684039116E0;-1.872380257E0
1.792916246E1;-3.949370384E-1;2.056311607E0;-5.685394764E0
1.794747453E1;2.665587187E0;-3.025732994E0;-8.818205833E0
1.796578728E1;2.628968954E0;-1.207476234E1;-8.690334320E0
1.798409947E1;-1.512690783E0;-1.171407795E1;-6.240075111E0
1.800241167E1;-2.114770412E0;-5.110857964E0;-5.050983429E0
1.802072392E1;-2.744513512E0;2.593750000E0;-2.129332542E0
1.803904668E1;-2.803313494E0;7.355326653E0;-1.757520199E0
1.805736040E1;-3.877692223E0;4.967674255E0;-1.206578732E0
1.807567290E1;-1.686857224E0;-2.200946808E0;-1.035007477E0
1.809398588E1;-5.606178045E-1;-1.079016018E1;1.510332394E1
1.811230119E1;8.924676180E-1;-1.269554901E1;1.394623566E1
1.813061070E1;2.915803909E0;-6.773453712E0;4.718598843E0
1.814892314E1;2.084440708E0;-3.599586487E-1;1.530670881E0
1.816723521E1;5.217220783E-1;7.671451569E-1;1.077339649E0
1.818554808E1;-3.045334816E-1;-6.116085052E-1;2.414839745E0
1.820386107E1;2.895972729E-1;1.237010956E-2;3.706903934E0
1.822217320E1;1.202473640E0;1.069890022E0;2.899033785E0
1.824048637E1;2.433841467E0;2.154710770E0;1.187801838E0
1.825878764E1;1.421480179E0;2.620706558E0;5.545467138E-1
1.827711088E1;-1.218595505E-1;2.040383339E0;7.653545141E-1
1.829542369E1;-1.021292329E0;1.436067581E0;-5.657625198E-2
1.831373643E1;-1.566939592E0;1.361608505E0;-1.177947640E0
1.833204869E1;-1.061320543E0;1.604038715E0;-1.859504938E0
1.835036119E1;3.008148670E-1;1.809006691E0;-2.149156094E0
1.836867204E1;5.859711170E-1;1.831632614E0;-2.085660458E0
1.838698637E1;2.673709393E-1;1.625652313E0;-2.428486824E0
1.840529863E1;-3.034946918E-1;1.211945534E0;-2.760461330E0
1.842361137E1;-7.316014767E-1;9.603548050E-1;-2.521672249E0
1.844192412E1;-8.837819099E-2;8.835401535E-1;-3.258751631E0
1.846023668E1;1.244619370E0;7.992982864E-1;-3.931658745E0
1.847854881E1;3.321315765E0;4.734497070E-1;-3.639261484E0
1.849686259E1;5.321319103E0;1.667823792E-1;-2.572905540E0
1.851517387E1;6.690226555E0;3.297424316E-1;-1.397241831E0
1.853348668E1;5.391415596E0;1.239735603E0;-1.374864221E0
1.855179423E1;2.012318611E0;1.219713211E0;-2.987349033E0
1.857011137E1;1.789417028E0;5.835342407E-2;-3.482157469E0
1.858842442E1;5.018823624E0;-1.375281334E0;-2.317901850E0
1.860673662E1;8.121397018E0;-2.911475182E0;-9.735237360E-1
1.862504887E1;7.820888519E0;-2.472988129E0;6.482762098E-1
1.864336162E1;4.643903732E0;-2.120176315E0;1.703013539E0
1.866167442E1;7.846274376E-1;-3.982676506E0;1.647658825E0
1.867998100E1;-4.343508720E0;-8.052094460E0;3.305317163E0
1.869829655E1;-8.931694031E0;-1.286144257E1;3.520230532E0
1.871661186E1;-8.363457680E0;-1.213931179E1;-2.633461952E-1
1.873492460E1;-3.696548223E0;-5.521849632E0;-1.022649407E0
1.875323723E1;-2.313987255E0;-1.493307114E0;2.633228302E-1
1.877154960E1;-1.056671619E0;-1.589527130E-1;5.183568001E-1
1.878986180E1;1.217598915E-1;5.191354752E-1;1.291790009E0
1.880817344E1;1.172443390E0;1.367660046E0;2.922070265E0
1.882648601E1;1.387749672E0;2.569977283E0;4.218195915E0
1.884479961E1;8.280768394E-1;3.836724281E0;4.906805515E0
1.886310991E1;7.076964378E-1;4.968030930E0;5.493551731E0
1.888142674E1;3.147560358E-1;5.522756577E0;5.796103954E0
1.889973765E1;4.792535305E-2;5.623726368E0;5.756780148E0
1.891804991E1;-4.008378983E-1;5.497646332E0;5.754864693E0
1.893636333E1;-8.959409595E-1;5.259839058E0;5.581330776E0
1.895467503E1;-1.446477056E0;4.669705391E0;4.501203537E0
1.897298765E1;-1.856207132E0;4.006843567E0;2.110052586E0
1.899129985E1;-2.197049379E0;2.991147995E0;-1.599740505E0
1.900960991E1;-1.220922232E0;1.375166893E0;-5.527327538E0
1.902792509E1;1.334172964E0;-2.813433647E0;-6.923714161E0
1.904623790E1;-1.009467363E0;-9.569985390E0;-4.010773659E0
1.906455620E1;-2.405181885E0;-9.103164673E0;-5.601403236E0
1.908286259E1;-2.339500189E0;-4.390422821E0;-5.754854202E0
1.910117528E1;-2.191336632E0;1.322419643E0;-3.506656170E0
1.911948448E1;-1.904822588E0;5.268659592E0;-2.579793930E0
1.913780131E1;-1.677291155E0;6.032035351E0;-1.758883476E0
1.915611290E1;-2.002337456E0;5.072154999E-1;-1.730515957E0
1.917442540E1;-2.116799116E0;-8.495393753E0;6.681993484E0
1.919273356E1;-1.551305771E0;-1.354936886E1;1.242094326E1
1.921105034E1;1.398663282E0;-1.298646450E1;5.021875381E0
1.922936284E1;1.952081084E0;-3.194937706E0;1.434489369E0
1.924767448E1;8.986487389E-1;1.685228348E0;3.025021076E0
1.926598808E1;5.176398754E-1;1.858547688E0;3.642936468E0
1.928430052E1;7.980378866E-1;1.071138382E0;5.093688011E0
1.930260118E1;1.536646962E0;9.203424454E-1;7.013808250E0
1.932091398E1;3.518782139E0;7.589693069E-1;6.132213116E0
1.933922710E1;5.217680454E0;9.637384415E-1;3.632581234E0
1.935753972E1;3.381038189E0;1.929978848E0;-3.506220579E-1
1.937585228E1;-8.516815901E-1;1.898698330E0;-5.644849777E0
1.939416466E1;-4.105077267E0;1.359995842E0;-6.828342915E0
1.941247850E1;-2.367890596E0;1.381558418E0;-3.889471769E0
1.943078984E1;-2.710072994E-1;1.682446957E0;-1.770233274E0
1.944910271E1;5.733742714E-1;1.789654732E0;-2.239295840E-1
1.946741551E1;4.906778336E-1;1.564754963E0;4.119849503E-1
1.948573051E1;4.261372089E-1;1.394016266E0;-4.621314108E-1
1.950403953E1;4.393959045E-1;1.233485222E0;-1.772722483E0
1.952236931E1;6.741764545E-1;9.922475815E-1;-2.591043472E0
1.954066435E1;1.620365381E0;7.221164703E-1;-2.946723461E0
1.955898906E1;3.366030216E0;5.386867523E-1;-2.973821640E0
1.957730113E1;5.161228180E0;1.400756836E-1;-2.537079811E0
1.959561388E1;6.747201920E0;1.094436646E-2;-1.776450038E0
1.961392638E1;5.769489288E0;8.654584885E-1;-1.563630939E0
1.963223918E1;2.913552761E0;1.448592186E0;-2.164231300E0
1.965055272E1;1.212165236E0;6.677627563E-1;-3.143358707E0
1.966886388E1;1.480310798E0;-6.402368546E-1;-3.470745325E0
1.968717577E1;4.216199875E0;-2.129030228E0;-2.662987232E0
1.970549199E1;6.590715408E0;-3.788103104E0;-1.571496844E0
1.972380150E1;6.377104759E0;-4.157724380E0;-7.826136351E-1
1.974211406E1;3.984995842E0;-3.316180229E0;1.047950387E-1
1.976042680E1;1.842794180E0;-2.951637268E0;6.840834022E-1
1.977874058E1;-8.183689117E-1;-3.444109917E0;1.948747396E0
1.979705156E1;-4.672193050E0;-6.292557716E0;3.381914854E0
1.981536143E1;-7.190094471E0;-9.689736366E0;1.639690161E0
1.983367699E1;-6.911785126E0;-9.414073944E0;1.947892904E-1
1.985198955E1;-3.660273075E0;-4.893757820E0;1.227809072E0
1.987030180E1;-1.931282043E0;-1.447798729E0;1.105860710E0
1.988861314E1;-3.317162991E-1;4.885330200E-1;7.845180035E-1
1.990692808E1;6.613841057E-1;1.911815643E0;2.001908779E0
1.992523985E1;1.287238359E0;2.805319786E0;3.353738546E0
1.994355199E1;1.127599955E0;3.849320412E0;3.940674782E0
1.996185966E1;1.073044777E0;5.060344696E0;4.799196243E0
1.998017729E1;1.314448118E0;6.007957935E0;5.339941978E0
1.999848979E1;1.156207800E0;6.006433010E0;5.519424438E0
2.001680211E1;-9.772062302E-3;5.455326080E0;5.542880058E0
2.003511485E1;-1.093643188E0;5.083488464E0;5.277755260E0
2.005342705E1;-1.369230628E0;4.880548477E0;4.350541115E0
2.007174016E1;-1.610247970E0;4.465080261E0;2.149564028E0
2.009004649E1;-2.398524284E0;3.254021168E0;-1.734161854E0
2.010836497E1;-1.761416435E0;1.768639565E0;-5.989301205E0
2.012667729E1;1.107013226E-1;-1.618781090E0;-7.868588924E0
2.014499004E1;1.484320164E-1;-8.296620369E0;-5.988833427E0
2.016330254E1;-1.346111655E0;-8.529207230E0;-5.440013885E0
2.018161504E1;-1.844114900E0;-4.072144508E0;-4.529109955E0
2.019992778E1;-1.497000575E0;7.611880302E-1;-2.668477774E0
2.021824180E1;-2.215698242E0;9.905943871E-1;-3.536758423E0
2.023654985E1;-2.379362583E0;-5.374765396E0;-4.252656937E0
2.025486510E1;-1.399390936E0;-9.214223862E0;4.364082336E0
2.027317772E1;7.171225548E-1;-8.739622116E0;1.123100090E1
2.029149083E1;2.130879879E0;-4.724456787E0;8.051825523E0
2.030980296E1;1.939546704E0;1.148124695E0;4.656714916E0
2.032811528E1;8.156013489E-2;2.560110092E0;4.849620819E0
2.034642888E1;-4.506349564E-2;1.099573612E0;5.577695847E0
2.036474077E1;2.078968525E0;-2.224388123E-1;6.394547462E0
2.038305150E1;3.949292660E0;-3.758640289E-1;5.096031189E0
2.040136552E1;4.962792873E0;3.533868790E-1;2.872541904E0
2.041967943E1;4.500835896E0;1.346133232E0;-8.385851383E-1
2.043799107E1;1.021385908E0;1.372834206E0;-3.197751045E0
2.045630430E1;-1.290982127E0;5.740365982E-1;-2.658151150E0
2.047461583E1;-1.692245960E0;8.381738663E-1;-2.260543346E0
2.049292857E1;-1.475221395E0;1.739061356E0;-1.775195122E0
2.051124101E1;-1.230957747E0;2.454715729E0;-6.444382668E-1
2.052954875E1;-7.807679176E-1;2.675904274E0;-3.263834119E-1
2.054786571E1;-9.199527502E-1;2.520051479E0;-2.784160972E-1
2.056617851E1;-1.144762754E0;2.168631554E0;-6.790940166E-1
2.058447740E1;-7.430003881E-1;1.423351288E0;-1.731482506E0
2.060279887E1;1.421678066E-1;6.447963715E-1;-2.798838377E0
2.062111620E1;1.396396399E0;-9.983539581E-2;-3.382038593E0
2.063943242E1;3.019462585E0;3.327198029E-1;-3.480986118E0
2.065774028E1;4.658767700E0;6.780004501E-1;-3.037611961E0
2.067605382E1;5.603960514E0;-7.132530212E-2;-2.583221912E0
2.069436345E1;5.633946419E0;-5.292682648E-1;-2.048102856E0
2.071267882E1;3.978805304E0;-2.851266861E-1;-1.802090883E0
2.073098570E1;2.044468403E0;1.979351044E-2;-2.428314686E0
2.074930382E1;2.107150555E0;9.743309021E-2;-2.619704962E0
2.076761626E1;4.910469055E0;-5.315170288E-1;-2.015178204E0
2.078592900E1;7.758678436E0;-1.825388908E0;-8.819086552E-1
2.080424211E1;7.990438461E0;-1.547756195E0;4.358136654E-2
2.082255785E1;5.027936459E0;-1.067748070E0;9.506623149E-1
2.084086650E1;1.699985504E0;-2.513069153E0;1.334216118E0
2.085918040E1;-1.427620411E0;-5.925713539E0;2.293646336E0
2.087749205E1;-5.650520325E0;-1.135626888E1;2.941532373E0
2.089580431E1;-8.365351677E0;-1.436389446E1;1.319402933E0
2.091411699E1;-6.441578865E0;-8.660345078E0;2.261710167E-2
2.093242924E1;-4.228686333E0;-3.124233246E0;9.056127071E-1
2.095074229E1;-3.137556791E0;-4.329595566E-1;1.345504761E0
2.096905449E1;-1.390376091E0;5.037508011E-1;7.163918018E-1
2.098736809E1;-2.707378864E-1;1.393725395E0;1.396893024E0
2.100568382E1;8.139393330E-1;2.464810848E0;2.785770655E0
2.102399223E1;1.018259764E0;3.471945286E0;3.919696569E0
2.104230418E1;1.345920563E0;4.760348797E0;4.773362160E0
2.106061723E1;1.571800828E0;6.073816299E0;5.460867405E0
2.107892937E1;1.480280519E0;6.196872711E0;5.835593700E0
2.109724168E1;8.830147982E-1;5.643199921E0;6.199110985E0
2.111555473E1;-2.154031992E-1;5.336721420E0;6.149399757E0
2.113386723E1;-1.008724451E0;5.039640903E0;5.160613060E0
2.115218419E1;-1.442380786E0;4.470814228E0;3.165760279E0
2.117048674E1;-1.988961101E0;3.124239922E0;-5.908832550E-1
2.118880516E1;-1.933880806E0;1.226365089E0;-5.331167698E0
2.120711723E1;9.073619843E-1;-1.310364723E0;-8.441377640E0
2.122541832E1;-5.130069256E-1;-8.202881813E0;-6.486172676E0
2.124373790E1;-1.505622149E0;-9.756604195E0;-7.360460281E0
2.126205504E1;-2.077264547E0;-5.940196037E0;-3.914288044E0
2.128036766E1;-2.091832638E0;-1.028877258E0;-2.159857750E0
2.129867912E1;-2.596496105E0;2.790509224E0;-2.802120686E0
2.131699303E1;-2.620155096E0;2.408809662E-1;-5.169631958E0
2.133530522E1;-2.170477152E0;-5.763538361E0;-2.741519928E0
2.135361772E1;-7.223182917E-1;-9.205784798E0;9.455106735E0
2.137192564E1;1.361089468E0;-8.148061752E0;1.383812714E1
2.139023180E1;2.934688091E0;-3.374216080E0;8.964894295E0
2.140855528E1;2.237431049E0;1.802354336E0;4.674444199E0
2.142686790E1;2.934560776E-1;2.351321220E0;4.366114140E0
2.144518046E1;4.929323196E-1;4.767427444E-1;4.629451752E0
2.146348204E1;2.036292315E0;-4.721364975E-1;4.785716057E0
2.148179484E1;3.207884312E0;1.323776245E-1;3.373344183E0
2.150010686E1;3.775344610E0;8.690443039E-1;2.048473597E0
2.151842021E1;2.883519650E0;1.779777527E0;-1.036012173E-2
2.153673228E1;1.877338886E-1;1.690845013E0;-2.023316860E0
2.155504454E1;-2.012960672E0;1.182396889E0;-2.708004713E0
2.157335673E1;-2.071754694E0;1.136701584E0;-3.364930153E0
2.159166911E1;-1.976689816E0;1.472828388E0;-2.547742128E0
2.160998308E1;-1.199647307E0;1.599577904E0;-1.735674143E0
2.162829466E1;-4.218440056E-1;1.364912033E0;-1.842773914E0
2.164662126E1;3.116295338E-1;9.308595657E-1;-2.897167206E0
2.166493095E1;9.652502537E-1;5.110263824E-1;-3.255744457E0
2.168324376E1;1.713474989E0;4.647455215E-1;-2.292579651E0
2.170155913E1;2.775272846E0;6.926708221E-1;-1.349345446E0
2.171986864E1;3.327571630E0;1.306391716E0;-1.109576225E0
2.173818120E1;3.154746771E0;1.814241409E0;-1.572075725E0
2.175649266E1;2.639671803E0;2.031466961E0;-1.875215769E0
2.177480626E1;2.692960501E0;1.745334148E0;-1.916400909E0
2.179311888E1;2.870338917E0;1.168888092E0;-1.886741281E0
2.181142369E1;2.698256969E0;4.445104599E-1;-1.900347710E0
2.182974419E1;1.938484430E0;-6.708383560E-1;-2.370905399E0
2.184805650E1;1.171892881E0;-1.266954422E0;-3.611409187E0
2.186636986E1;1.740489006E0;-1.369733810E0;-4.918920994E0
2.188468162E1;3.723767757E0;-2.798826218E0;-4.379499435E0
2.190299065E1;6.100730419E0;-4.744853973E0;-3.404026985E0
2.192130650E1;6.577605247E0;-4.040082932E0;-2.032537460E0
2.193961333E1;6.291745186E0;-2.466276169E0;-7.081041336E-1
2.195793175E1;4.567133904E0;-1.705909729E0;1.623599768E0
2.197624480E1;1.449785709E0;-2.556270599E0;4.860322952E0
2.199455693E1;-1.370325685E0;-5.092284203E0;6.085551262E0
2.201286461E1;-4.869556904E0;-8.324293137E0;3.582808971E0
2.203118193E1;-5.600157261E0;-9.239673615E0;8.975937366E-1
2.204949138E1;-2.288704872E0;-5.424035072E0;6.087419987E-1
2.206780595E1;-4.703044891E-1;-1.285132408E0;7.009851933E-1
2.208611967E1;2.339441776E-1;9.820137024E-1;2.230505466E0
2.210443193E1;9.608731270E-1;2.234593391E0;3.890182734E0
2.212274486E1;6.757607460E-1;2.855072975E0;4.364634037E0
2.214105711E1;5.784664154E-1;3.787720680E0;4.852989674E0
2.215936986E1;6.420896053E-1;5.023954391E0;5.634329796E0
2.217768242E1;8.408373594E-1;5.898197651E0;6.165451050E0
2.219599541E1;3.333554268E-1;6.007632732E0;6.348509789E0
2.221430742E1;-7.839472294E-1;5.783748627E0;6.267914772E0
2.223261998E1;-1.677731037E0;5.280379295E0;5.711595058E0
2.225093266E1;-2.098720551E0;4.128488064E0;3.415656328E0
2.226924638E1;-2.725032091E0;2.647469044E0;-7.758464813E-1
2.228756071E1;-2.342756271E0;8.631696701E-1;-4.786145687E0
2.230586992E1;1.492629051E-1;-3.113987923E0;-5.655414581E0
2.232418291E1;-3.531730175E0;-1.073663139E1;-4.638720036E0
2.234249547E1;-4.115510941E0;-9.267255783E0;-4.384156227E0
2.236080748E1;-2.752761126E0;-3.312677383E0;-4.426523209E0
2.237912034E1;-2.567884684E0;1.778043747E0;-3.905392647E0
2.239743413E1;-1.684407949E0;4.760681629E0;-3.902461529E0
2.241574571E1;-1.640933394E0;2.036848068E0;-4.171550274E0
2.243405791E1;-4.014422894E-1;-5.958819389E0;-3.557817459E0
2.245236583E1;2.539597988E0;-1.076543140E1;1.166326809E1
2.247068315E1;1.922154307E0;-1.066516972E1;1.339446735E1
2.248899596E1;2.208762169E0;-3.262592316E0;6.977198124E0
2.250730705E1;1.524981976E0;3.323272228E0;1.444014549E0
2.252560924E1;-2.091391087E-1;4.460661888E0;6.087155342E-1
2.254392247E1;-8.966392279E-1;1.018835068E0;1.583072662E0
2.256223454E1;2.022750378E-1;-1.399669647E0;4.681715012E0
2.258054686E1;1.460576534E0;-1.267514229E0;5.081930637E0
2.259886076E1;3.273856401E0;-6.689844131E-1;3.332292557E0
2.261717296E1;3.689980745E0;3.753957748E-1;6.172411442E-1
2.263548521E1;1.373414278E0;8.814849854E-1;-2.263184071E0
2.265379771E1;-1.057638407E0;1.274541855E0;-3.486660480E0
2.267210991E1;-2.287564516E0;2.061462402E0;-2.987735748E0
2.269042332E1;-1.824102044E0;2.709843636E0;-1.690846682E0
2.270873625E1;-8.412137032E-1;2.880924225E0;-9.534105659E-1
2.272704875E1;-2.544586658E-1;2.575553417E0;-1.254829764E0
2.274535979E1;1.105568409E-1;1.895911217E0;-2.146834135E0
2.276367253E1;-9.500741959E-2;9.857559204E-1;-1.923753262E0
2.278198588E1;6.289834976E-1;7.661161423E-1;-3.844209611E-1
2.280032280E1;1.407081604E0;8.335638046E-1;8.851289749E-2
2.281861113E1;1.580598593E0;5.364074707E-1;-2.021025181E0
2.283692277E1;1.944206715E0;4.805278778E-1;-5.443164349E0
2.285524693E1;3.552905798E0;4.973850250E-1;-6.299178123E0
2.287355919E1;3.898404121E0;-3.139810562E-1;-5.065127373E0
2.289187163E1;3.671445370E0;-6.701984406E-1;-3.144033909E0
2.291018553E1;3.195335865E0;-3.853979111E-1;-2.245324135E0
2.292849693E1;2.109402418E0;3.009414673E-2;-2.093970776E0
2.294680937E1;2.368263483E0;-4.812841415E-1;-2.332192898E0
2.296512212E1;4.937409401E0;-2.155665398E0;-1.816869378E0
2.298343437E1;6.810179234E0;-2.875869751E0;-1.274658442E0
2.300174687E1;5.923693657E0;-2.309238434E0;-6.307992935E-1
2.302005986E1;4.655044079E0;-3.087153435E0;-3.888960481E-1
2.303837041E1;2.152650833E0;-4.764122009E0;7.403421402E-1
2.305668462E1;-1.543805838E0;-8.497841835E0;2.509925842E0
2.307499766E1;-5.251504421E0;-1.266394901E1;2.154908180E0
2.309330498E1;-7.284164429E0;-1.108652973E1;1.204756618E0
2.311162498E1;-5.459220886E0;-5.220845222E0;2.554745197E0
2.312993468E1;-3.903919220E0;-1.257840157E0;2.469666481E0
2.314824760E1;-2.397212029E0;6.541357040E-1;1.492020130E0
2.316656108E1;-9.334058762E-1;1.578067780E0;1.824404955E0
2.318487205E1;2.812137604E-1;2.315296650E0;3.305893421E0
2.320318486E1;8.262302876E-1;3.057510376E0;4.476692200E0
2.322149302E1;9.427887201E-1;4.262198448E0;5.009849548E0
2.323981004E1;1.230969310E0;5.342514038E0;5.535236835E0
2.325812260E1;1.178672671E0;5.938054085E0;6.161971569E0
2.327643632E1;4.620089531E-1;5.992171288E0;6.429312706E0
2.329474821E1;-7.031472921E-1;6.230804443E0;6.423999310E0
2.331306041E1;-1.268056154E0;5.823626518E0;5.628308773E0
2.333137291E1;-1.687114239E0;5.121790409E0;3.240965366E0
2.334967955E1;-2.084443092E0;4.187613964E0;-1.198007107E0
2.336799791E1;-6.503751278E-1;3.184256554E0;-7.085095406E0
2.338631096E1;3.381808996E0;6.020088196E-1;-9.678577423E0
2.340462309E1;1.029588223E0;-7.598356247E0;-5.032141209E0
2.342293559E1;-1.677951455E0;-8.893170357E0;-4.028002739E0
2.344124809E1;-2.809880018E0;-4.890795708E0;-4.273551464E0
2.345955669E1;-2.517804384E0;3.679370880E-2;-2.489101410E0
2.347787218E1;-3.477293015E0;3.616916180E0;-9.282968044E-1
2.349618565E1;-4.985980034E0;1.952590942E0;-2.444539309E0
2.351449840E1;-5.564360619E0;-6.267793655E0;-3.985155344E0
2.353281090E1;-4.346241474E0;-1.341109657E1;1.058550072E1
2.355112328E1;-2.434455156E-1;-1.738304520E1;1.140532303E1
2.356943205E1;4.225667477E0;-6.358625412E0;6.059621334E0
2.358775151E1;4.367659569E0;1.520972252E0;4.974614143E0
2.360606102E1;3.303418875E0;4.492301464E0;3.887542248E0
2.362437352E1;2.579698324E0;4.385870457E0;3.262134075E0
2.364268608E1;2.540122032E0;2.428021431E0;6.367759705E0
2.366099882E1;4.092418671E0;1.377137184E0;5.795562744E0
2.367931218E1;5.364378929E0;1.410623550E0;3.006639957E0
2.369762389E1;4.023364067E0;1.775865555E0;8.740946054E-1
2.371593632E1;-2.141411543E0;1.448613167E0;-8.165332794E0
2.373424937E1;-3.306217909E0;1.590247631E0;-6.441170692E0
2.375256138E1;-2.448564291E0;1.938484192E0;-2.561000586E0
2.377087382E1;-1.293333054E0;1.715234756E0;-3.374011442E-2
2.378918657E1;-1.795744896E-2;1.424875259E0;6.527614594E-1
2.380750273E1;7.539308071E-1;1.099148750E0;3.711477816E-1
2.382581132E1;6.426734924E-1;7.616262436E-1;-5.752688050E-1
2.384410997E1;3.511834145E-2;2.406778336E-1;-2.766566038E0
2.386243297E1;5.294268131E-1;-2.216634750E-1;-3.962627888E0
2.388074913E1;2.121105909E0;-2.736873627E-1;-3.289494753E0
2.389906181E1;4.253396034E0;-4.716873169E-3;-2.323132038E0
2.391737437E1;5.897449970E0;-1.379671097E-1;-2.055697203E0
2.393568681E1;6.029525280E0;-8.394575119E-1;-3.512917519E0
2.395399962E1;3.709506035E0;-1.514157295E0;-5.125941277E0
2.397231181E1;1.727666140E0;-1.229150772E0;-4.918494225E0
2.399061876E1;5.442540646E-1;-1.996135712E-1;-3.819499493E0
2.400893712E1;5.625305176E-1;9.275522232E-1;-3.110908508E0
2.402724895E1;2.683055401E0;1.116610527E0;-2.771590710E0
2.404556206E1;5.504823685E0;-3.171405792E-1;-2.041546822E0
2.406387505E1;7.424551010E0;-2.468888283E0;-7.204957008E-1
2.408218785E1;5.998845100E0;-1.997303009E0;2.049906492E0
2.410050004E1;3.279772043E0;-2.124046326E0;4.374510288E0
2.411880815E1;-3.737773895E-1;-3.113602638E0;5.038592815E0
2.413712523E1;-3.517485857E0;-6.555866241E0;2.797818422E0
2.415543761E1;-5.953751564E0;-1.197945309E1;-1.255630493E0
2.417375010E1;-4.602416515E0;-1.222376537E1;-2.154404640E0
2.419206303E1;-1.783052802E0;-5.497534752E0;-2.805998325E-1
2.421037529E1;-8.292677402E-1;-7.626838684E-1;8.002617359E-1
2.422868785E1;-6.401700974E-1;7.361650467E-1;1.862903357E0
2.424700029E1;5.764145851E-1;1.654397964E0;3.440500259E0
2.426531279E1;1.124679089E0;2.446575165E0;4.571513176E0
2.428362553E1;1.015508652E0;3.297093868E0;5.369529724E0
2.430193779E1;6.601827145E-1;4.369813919E0;5.774377346E0
2.432025200E1;5.495905876E-1;4.989239693E0;5.856486320E0
2.433856303E1;-5.610013008E-2;4.717563629E0;5.894510746E0
2.435687559E1;-1.343086004E0;4.526323795E0;5.903264523E0
2.437518803E1;-2.546303034E0;4.150084019E0;5.441046715E0
2.439350090E1;-2.967646122E0;3.541823387E0;4.141825676E0
2.441181334E1;-3.227618456E0;3.164054871E0;1.354263306E0
2.443012578E1;-3.214430571E0;2.371575832E0;-2.090458393E0
2.444843932E1;-1.528688192E0;1.583726406E0;-4.768582821E0
2.446675078E1;7.199759483E-1;-6.306018829E-1;-5.631574631E0
2.448506328E1;8.761394024E-1;-4.730289936E0;-3.696109295E0
2.450337132E1;7.580330372E-1;-4.760343552E0;-2.591865063E0
2.452168834E1;-1.331963539E-1;-3.374437332E0;-6.756446362E0
2.454000151E1;-1.586174965E-2;-6.053339958E0;-9.935026169E0
2.455830180E1;2.440386057E0;-9.960678101E0;-1.073856354E0
2.457662474E1;1.814718246E-1;-8.994714737E0;8.885895729E0
2.459493889E1;-7.749496698E-1;-2.920074463E0;8.723118782E0
2.461325157E1;-1.699349642E0;2.779083252E0;4.991242409E0
2.463156352E1;-3.392150879E0;4.943536282E0;3.588996649E0
2.464987651E1;-4.541894913E0;3.698674202E0;4.436836720E0
2.466818876E1;-2.921859741E0;1.934866428E0;5.406004906E0
2.468650157E1;-2.192921638E-1;-7.394132614E-1;7.801804543E0
2.470480205E1;2.506594419E0;-3.378129959E0;6.581985950E0
2.472312645E1;4.250484467E0;-3.685324669E0;2.234952450E0
2.474143901E1;5.402078629E0;-2.876504898E0;-1.583842516E0
2.475974577E1;3.642797709E0;-8.193979263E-1;-3.427469254E0
2.477806419E1;1.245259762E0;4.150476456E-1;-2.658974171E0
2.479637761E1;2.861618996E-1;4.605636597E-1;-1.545889497E0
2.481468932E1;-6.285784245E-1;6.693706512E-1;-5.892647505E-1
2.483300206E1;-1.174558878E0;1.746276855E0;1.136147976E-2
2.485131450E1;-1.391624451E0;2.612473488E0;4.909914732E-2
2.486962706E1;-1.318323135E0;2.997414589E0;-9.425300360E-2
2.488793834E1;-5.031900406E-1;2.993224144E0;-4.222811460E-1
2.490624138E1;2.184889317E-1;2.521017075E0;-1.022400141E0
2.492455400E1;6.204969883E-1;1.720160484E0;-1.961530685E0
2.494286595E1;1.184108019E0;8.296594620E-1;-3.431119680E0
2.496117882E1;1.352160692E0;4.815454483E-1;-5.077446461E0
2.497949321E1;1.697250605E0;4.365501404E-1;-5.594644547E0
2.499780492E1;2.654066801E0;4.205780029E-1;-4.981519222E0
2.501611613E1;4.214529514E0;2.720212936E-1;-3.404257059E0
2.503443150E1;5.117060661E0;5.713205338E-1;-1.641285777E0
2.505275249E1;4.818317413E0;1.278951645E0;-6.663087606E-1
2.507106499E1;3.672606707E0;1.528295517E0;-4.919913411E-1
2.508937895E1;3.430502892E0;3.100080490E-1;-1.222523928E0
2.510769023E1;4.021874428E0;-1.894164085E0;-2.149574041E0
2.512600304E1;4.022704124E0;-4.839436531E0;-2.434149027E0
2.514431523E1;3.926527977E0;-5.595286369E0;-1.489974976E0
2.516262797E1;2.915397882E0;-4.857555389E0;-4.797844887E-1
2.518094054E1;7.919521332E-1;-5.361011505E0;1.917686224E0
2.519925297E1;-3.842796326E0;-6.732882500E0;4.727010727E0
2.521756645E1;-8.623661041E0;-8.634762764E0;3.883683920E0
2.523587804E1;-9.377433777E0;-6.782753944E0;1.228425741E0
2.525419054E1;-5.722453117E0;-2.549457550E0;5.315897465E-1
2.527249870E1;-2.497339487E0;-4.012432098E-1;-4.219198227E-2
2.529081547E1;1.544535160E-1;3.220663071E-1;9.545669556E-1
2.530912822E1;1.842352986E0;1.058387756E0;2.104864597E0
2.532744011E1;2.220738888E0;2.291331291E0;3.030130386E0
2.534575188E1;1.991019726E0;4.235991478E0;3.664642572E0
2.536406572E1;1.643487573E0;5.994888306E0;4.212726593E0
2.538237694E1;1.704261899E0;6.489638329E0;4.890721321E0
2.540068150E1;8.196340799E-1;5.478683949E0;5.436041832E0
2.541900371E1;-7.917565703E-1;4.496010303E0;5.456745148E0
2.543731499E1;-1.550917625E0;3.884190559E0;5.096916199E0
2.545562871E1;-1.891274810E0;3.483440399E0;3.920802116E0
2.547394096E1;-2.446621418E0;3.238492489E0;1.650487900E0
2.549225401E1;-3.056325197E0;2.955603123E0;-1.888794422E0
2.551056621E1;-3.062809467E0;2.540467739E0;-6.269398689E0
2.552887785E1;-2.022363186E0;-1.382466316E0;-8.600790024E0
2.554719017E1;-9.585421085E-1;-5.777362823E0;-7.102635384E0
2.556550395E1;-2.231833935E-1;-4.276373863E0;-4.862603188E0
2.558381932E1;-7.668204308E-1;-8.238363266E-1;-2.786067486E0
2.560212913E1;-1.180435658E0;2.406792641E0;-1.638332129E0
2.562044170E1;-1.316954136E0;4.358125687E0;-9.470746517E-1
2.563874418E1;-1.507774949E0;4.158272266E0;-7.269432545E-1
2.565706792E1;3.510220051E-1;-7.057809830E-1;-7.061983109E0
2.567537950E1;4.187350273E-1;-8.151433945E0;9.783998489E0
2.569369170E1;4.400155544E-1;-1.641558075E1;1.000578022E1
2.571200584E1;-2.773671150E-1;-1.733793259E1;3.833543062E0
2.573031810E1;6.508326530E-1;-5.327653885E0;-9.822604656E-1
2.574862974E1;-3.306768179E0;1.307642937E0;5.364230156E0
2.576694188E1;-3.746120930E0;5.504877090E0;5.948130608E0
2.578524284E1;-1.402623415E0;6.261887550E0;4.523646355E0
2.580356694E1;7.551403046E-1;3.638539314E0;3.278452158E0
2.582187999E1;1.890245438E0;-4.699525833E-1;2.168768883E0
2.584019218E1;2.060162306E0;-2.889930725E0;2.719347775E-1
2.585850621E1;1.025529385E0;-2.435722351E0;-2.034710407E0
2.587680278E1;7.720232010E-1;-5.771160126E-1;-3.020876646E0
2.589512968E1;8.350081444E-1;2.127212048E0;-1.999683857E0
2.591343761E1;1.617416143E0;3.774797440E0;-4.969705343E-1
2.593175523E1;2.452633142E0;4.414101124E0;5.708255768E-1
2.595005308E1;2.752576590E0;4.414583206E0;-3.979650140E-2
2.596836894E1;2.699436903E0;3.940345764E0;-2.335264683E0
2.598668089E1;1.801608324E0;2.551670074E0;-4.545557976E0
2.600500542E1;1.448435187E0;1.585748196E0;-5.106426239E0
2.602331761E1;1.595354557E0;7.962179184E-1;-4.908365250E0
2.604161583E1;2.415017128E0;2.588148117E-1;-4.782052040E0
2.605994994E1;3.978938580E0;-1.216011047E-1;-3.693030357E0
2.607824419E1;5.248381615E0;-4.256334305E-1;-2.328706264E0
2.609656462E1;5.275903702E0;-3.599319458E-1;-2.115360498E0
2.611488072E1;4.123566151E0;-9.440326691E-2;-3.604406834E0
2.613319292E1;2.640028238E0;6.322669983E-2;-4.761798382E0
2.615149516E1;2.764405012E0;7.536849976E-1;-4.328730106E0
2.616980803E1;4.529191971E0;5.662555695E-1;-2.959413052E0
2.618811955E1;5.628751755E0;-3.651142120E-1;-1.975410461E0
2.620643248E1;5.136386871E0;-1.726388931E0;2.948832512E-1
2.622474217E1;4.542890549E0;-3.290699959E0;3.632733583E0
2.624305705E1;2.759959698E0;-6.886928558E0;7.754038334E0
2.626136980E1;-2.244138479E0;-1.265550518E1;8.386775017E0
2.627968217E1;-6.729414940E0;-1.806744003E1;-3.681361675E-1
2.629799473E1;-6.230714798E0;-1.278049850E1;-3.623011112E0
2.631630778E1;-3.880609989E0;-5.036827087E0;-1.035641193E0
2.633461974E1;-2.806452274E0;-8.037004471E-1;1.501618266E0
2.635294646E1;-2.115333796E0;3.951940536E-1;2.898539782E0
2.637125645E1;-2.058908463E0;1.236775875E0;3.414355993E0
2.638956499E1;-9.915869236E-1;2.795715809E0;4.169857025E0
2.640788145E1;-6.120061874E-2;4.240753174E0;4.525448799E0
2.642619365E1;3.682665825E-1;4.932169914E0;4.968040943E0
2.644450688E1;8.523497581E-1;5.728659630E0;5.473985195E0
2.646281908E1;1.050349712E0;6.598810196E0;5.806160927E0
2.648113115E1;3.142462969E-1;7.404232979E0;6.120532036E0
2.649944163E1;-1.465503454E0;7.589543819E0;5.631836414E0
2.651775633E1;-2.903273582E0;6.955702305E0;3.365534782E0
2.653606914E1;-3.030009031E0;5.964885235E0;-5.656213760E-1
2.655438188E1;-2.080487728E0;5.306767464E0;-3.881081581E0
2.657269414E1;2.456457615E-1;2.062181473E0;-5.056465149E0
2.659100694E1;2.928793669E0;-4.970555305E0;-5.784547329E0
2.660931822E1;2.446008444E0;-1.010589790E1;-3.005496979E0
2.662763200E1;2.896525860E-1;-6.369189262E0;-6.312131882E0
2.664594432E1;-3.388912678E-1;-2.114219666E-1;-4.147146702E0
2.666425713E1;-2.028693676E0;4.860016823E0;-2.811934948E0
2.668256505E1;-4.065264225E0;2.424647331E0;-4.486573696E0
2.670088243E1;-3.097510338E0;-9.370162010E0;-1.936651230E0
2.671919456E1;-2.579973698E0;-1.629372025E1;1.220950699E1
2.673750627E1;-1.201210022E-1;-1.653441620E1;1.010354900E1
2.675581987E1;2.336194992E0;-4.373040199E0;3.624354601E0
2.677413243E1;1.627055883E0;3.110268593E0;4.264717579E0
2.679244493E1;-2.557456493E-1;4.204041481E0;5.322183609E0
2.681075188E1;-3.262805939E-1;2.081200600E0;6.832134247E0
2.682907011E1;9.072749615E-1;-7.084865570E-1;8.651416779E0
2.684738152E1;3.263030052E0;-2.773209572E0;6.461261749E0
2.686569426E1;5.670599461E0;-2.259082794E0;1.156596303E0
2.688401091E1;3.308672667E0;-9.302902222E-2;-3.550297022E0
2.690231718E1;-1.016261220E0;1.407061577E0;-3.723725080E0
2.692062804E1;-1.727240920E0;2.233946800E0;-3.146825552E0
2.693894652E1;-1.276090980E0;2.790501595E0;-1.331187725E0
2.695726018E1;-2.665657997E-1;3.537977219E0;-4.785627127E-3
2.697557036E1;5.988140106E-1;3.809732914E0;-2.900075912E-2
2.699388316E1;5.163393021E-1;3.663980961E0;-1.033890963E0
2.701219542E1;1.142945290E-1;2.575711727E0;-2.412513256E0
2.703050847E1;-9.649729729E-2;1.371565819E0;-2.896793365E0
2.704882072E1;4.361290932E-1;1.019977570E0;-2.929107904E0
2.706713481E1;6.817526817E-1;3.848829269E-1;-3.308235645E0
2.708543138E1;9.636411667E-1;1.577091217E-1;-3.439032316E0
2.710376152E1;2.112007141E0;8.028411865E-2;-2.685045242E0
2.712207060E1;3.181771994E0;5.670194626E-1;-2.029302359E0
2.714038475E1;3.725902081E0;1.234635353E0;-1.458035588E0
2.715869572E1;4.497231483E0;1.460717201E0;-1.180566549E0
2.717700865E1;5.549587250E0;1.171952248E0;-1.603101969E0
2.719532115E1;5.387644291E0;5.710287094E-1;-2.002910137E0
2.721363390E1;5.152225494E0;-4.404087067E-1;-2.002994061E0
2.723194609E1;5.654125214E0;-1.682604790E0;-2.595985889E0
2.725025328E1;5.641003609E0;-2.957870483E0;-2.980807304E0
2.726857133E1;3.604744434E0;-3.124169350E0;-2.309305429E0
2.728688353E1;7.698128223E-1;-4.113934517E0;1.497923851E0
2.730519633E1;-2.341428280E0;-6.428394318E0;4.792798519E0
2.732350450E1;-5.672767639E0;-1.047560692E1;5.859278679E0
2.734182158E1;-9.341077805E0;-1.433756351E1;2.576311111E0
2.736013426E1;-7.364443302E0;-1.104653072E1;-8.688805103E-1
2.737844548E1;-3.939630508E0;-4.557677269E0;-1.624254465E0
2.739675963E1;-2.209857464E0;-1.911045074E0;2.131137848E-1
2.741507182E1;-1.619539261E-1;-8.041725159E-1;1.309254289E0
2.743338438E1;1.786589384E0;-1.756458282E-1;1.497117996E0
2.745169249E1;1.334410429E0;8.416805267E-1;2.279687881E0
2.747000987E1;6.126470566E-1;2.395517826E0;3.420253754E0
2.748832213E1;4.652290344E-1;4.163826942E0;4.474228382E0
2.750663457E1;6.197004318E-1;4.942139149E0;5.123077869E0
2.752494700E1;4.501092434E-1;5.438703060E0;5.576714993E0
2.754325700E1;-2.898405790E-1;5.797810555E0;5.707339764E0
2.756157182E1;-1.219286203E0;5.919542789E0;5.770038605E0
2.757988597E1;-2.349391699E0;5.311741352E0;5.221811295E0
2.759818571E1;-3.306220293E0;4.491694450E0;4.032789230E0
2.761650737E1;-3.205391407E0;3.795051575E0;1.708464146E0
2.763482231E1;-2.880971670E0;2.998247147E0;-1.484991550E0
2.765313487E1;-2.918192625E0;1.772833347E0;-4.653104782E0
2.767144816E1;-1.283842802E0;-8.753223419E-1;-7.072246075E0
2.768976036E1;-3.609993458E-1;-6.603652000E0;-5.678890228E0
2.770807371E1;1.000052214E0;-7.655595779E0;-6.020894051E0
2.772638622E1;9.211404324E-1;-4.355006218E0;-5.466405869E0
2.774469194E1;4.945178032E-1;1.836833954E-1;-3.690836906E0
2.776301054E1;-8.183002472E-2;4.561680794E0;-2.226136684E0
2.778132280E1;-9.491800070E-1;5.151831150E0;-3.231210709E0
2.779963524E1;-1.477699637E0;-1.019669533E0;-2.558576584E0
2.781794774E1;7.659540176E-1;-8.261073112E0;6.968099594E0
2.783626079E1;-1.095877647E0;-1.145228291E1;1.142840195E1
2.785457310E1;-1.195794344E0;-9.648079872E0;8.265645981E0
2.787288560E1;1.256896973E0;-1.682818413E0;2.145383120E0
2.789119218E1;2.042381763E-1;3.434787750E0;-1.571915150E-1
2.790950737E1;-4.057672501E0;2.392794132E0;1.709412575E0
2.792782335E1;-3.564576149E0;5.256099701E-1;3.013341427E0
2.794613310E1;-1.600081563E0;2.754993439E-1;2.942732096E0
2.796444853E1;8.327765465E-1;1.399135590E-2;2.566436291E0
2.798275841E1;2.345841408E0;1.558208466E-1;2.726220131E0
2.800107323E1;3.387189388E0;4.860010147E-1;2.206694603E0
2.801938756E1;2.648643732E0;1.227470398E0;9.320111275E-1
2.803770128E1;9.825112820E-1;2.208687782E0;3.549245000E-2
2.805601134E1;2.822971344E-2;2.979929924E0;-1.335333586E0
2.807432371E1;8.937230110E-1;2.937715530E0;-2.953830481E0
2.809263170E1;1.826008320E0;2.354966164E0;-3.626621723E0
2.811094902E1;1.086317778E0;1.810872078E0;-3.414937735E0
2.812926158E1;-6.941018105E-1;8.836088181E-1;-2.939443827E0
2.814757280E1;-1.477927566E0;3.805398941E-1;-2.024045229E0
2.816588676E1;-7.729995251E-1;7.238063812E-1;-1.037344217E0
2.818419908E1;1.368999481E-2;1.036552429E0;-9.639221430E-1
2.820251176E1;8.538002968E-1;9.746112823E-1;-2.686373711E0
2.822082426E1;1.877230167E0;9.537982941E-1;-4.990907192E0
2.823913670E1;3.708503485E0;7.220525742E-1;-4.434659958E0
2.825744926E1;6.281633377E0;2.232551575E-2;-2.011082649E0
2.827576207E1;7.154961109E0;-8.212089539E-3;-3.727141619E-1
2.829407451E1;5.525142670E0;3.162832260E-1;-9.523850083E-1
2.831238701E1;5.009511948E0;-2.298994064E-1;-1.816565871E0
2.833069951E1;6.208731651E0;-2.219017982E0;-1.363406897E0
2.834901372E1;6.392064571E0;-2.926011086E0;-8.313796520E-1
2.836732579E1;3.943300962E0;-2.618033409E0;-9.767385125E-1
2.838563872E1;1.369164467E0;-3.582850456E0;-1.784888625E0
2.840394969E1;-1.237721801E0;-5.358699799E0;-1.095036626E0
2.842224809E1;-4.257331371E0;-8.432126045E0;2.034722805E0
2.844056383E1;-7.645247459E0;-1.143633080E1;2.515608788E0
2.845887578E1;-8.245086670E0;-8.987876892E0;8.686566353E-1
2.847718968E1;-5.765399933E0;-3.763712883E0;7.100334167E-1
2.849550249E1;-4.225999832E0;-1.551112175E0;8.008091450E-1
2.851381395E1;-1.834328294E0;-6.967782974E-1;2.270903587E-1
2.853213292E1;5.074577332E-1;3.951740265E-2;5.428075790E-1
2.855045030E1;2.175759792E0;1.013944626E0;2.303200722E0
2.856876304E1;2.427181959E0;2.007593155E0;3.616592407E0
2.858707524E1;1.912811518E0;3.602672100E0;4.269782543E0
2.860538792E1;1.349977255E0;5.170503139E0;4.926965237E0
2.862370042E1;9.540045261E-1;6.346894264E0;5.399716854E0
2.864201305E1;-3.912880421E-1;6.373671055E0;5.445608139E0
2.866031962E1;-1.550475717E0;6.123983383E0;5.239113808E0
2.867863817E1;-1.718750715E0;5.945286274E0;4.807722569E0
2.869695079E1;-1.889305949E0;5.565803528E0;3.555977106E0
2.871526353E1;-2.203159332E0;4.753351212E0;9.908204079E-1
2.873357085E1;-2.725689888E0;3.447331905E0;-2.769842148E0
2.875189177E1;-5.425775051E-1;1.714584351E0;-6.451825142E0
2.877020079E1;1.135490656E0;-5.372878075E0;-7.245169640E0
2.878851237E1;8.246581554E-1;-1.193585777E1;-7.318187714E0
2.880682591E1;-1.613120556E0;-9.118720055E0;-5.785468102E0
2.882512651E1;-1.864909887E0;-2.913641930E0;-4.440060616E0
2.884345097E1;-2.948289633E0;3.981166840E0;-2.212760448E0
2.886176396E1;-3.230726242E0;8.461236954E0;-1.706301689E0
2.888007622E1;-3.960936546E0;6.294226646E0;7.573761940E-1
2.889838872E1;-1.296780109E0;-1.330832481E0;-2.307789803E0
2.891670122E1;-2.628674984E0;-1.323001671E1;1.832449913E1
2.893501427E1;1.799688816E0;-2.094576263E1;1.253145027E1
2.895332646E1;5.911529064E0;-9.881986618E0;2.440263033E0
2.897163896E1;4.309585571E0;5.517921448E-1;-1.372890711E0
2.898995293E1;9.151797295E-1;3.537995338E0;2.312777281E0
2.900826433E1;-6.776499748E-2;2.952796936E0;5.042643547E0
2.902657646E1;3.503355980E-1;2.146100521E0;5.756524086E0
2.904488939E1;1.589109898E0;1.392245293E0;4.659844398E0
2.906320067E1;1.675477028E0;1.051573753E0;2.087351561E0
2.908151420E1;4.168448448E-1;8.220090866E-1;-9.962806702E-1
2.909982988E1;-1.634683967E0;6.318063736E-1;-3.118889809E0
2.911814067E1;-1.943673253E0;8.777742386E-1;-2.775042295E0
2.913645293E1;-2.246985435E-1;1.497214317E0;-1.865145326E0
2.915476475E1;9.643156528E-1;2.118550301E0;-7.910248041E-1
2.917307237E1;1.167545557E0;2.761263371E0;9.716928005E-3
2.919139256E1;1.082120419E0;3.145575523E0;-5.552100539E-1
2.920970225E1;3.903865814E-1;2.966036320E0;-2.198807716E0
2.922801494E1;-6.639773846E-1;2.121088982E0;-3.931912899E0
2.924632811E1;-8.907988071E-1;9.397125244E-1;-4.902686119E0
2.926463017E1;6.061196327E-2;1.005010605E-1;-5.187989712E0
2.928295000E1;3.030044556E0;-2.004861832E-1;-3.828210831E0
2.930125407E1;6.736531258E0;-8.764410019E-1;-2.026122570E0
2.931958977E1;8.808181763E0;-7.760133743E-1;-1.543107867E0
2.933787834E1;6.679733753E0;4.296131134E-1;-1.951285601E0
2.935619157E1;3.731815338E0;1.380376816E0;-3.015524387E0
2.937451817E1;3.526732922E0;7.360086441E-1;-2.743808746E0
2.939282774E1;6.318236828E0;-1.376954079E0;-1.720196843E0
2.941114018E1;7.376505375E0;-3.004318237E0;-5.298669934E-1
2.942944792E1;4.751766205E0;-3.404972076E0;3.762958050E-1
2.944776573E1;3.346149683E0;-4.670598030E0;2.684360027E0
2.946606651E1;3.874509335E-1;-7.615356445E0;5.731512547E0
2.948439061E1;-5.016076565E0;-1.278149796E1;4.593297482E0
2.950269548E1;-7.118294716E0;-1.481901169E1;-1.541199088E-1
2.952100572E1;-5.396941185E0;-8.634837151E0;-1.604265928E0
2.953931755E1;-3.970376015E0;-3.268428802E0;8.845576048E-1
2.955762944E1;-3.519390106E0;-4.952297211E-1;2.631063700E0
2.957594243E1;-3.270218372E0;8.511314392E-1;2.285507679E0
2.959425535E1;-2.510998011E0;2.016264915E0;2.453565598E0
2.961256724E1;-1.266273022E0;3.163615704E0;3.303442001E0
2.963087993E1;-2.092387676E-1;3.869627476E0;4.069733143E0
2.964919304E1;5.412422419E-1;4.323444843E0;4.758523941E0
2.966750645E1;1.218526840E0;4.786340237E0;5.510875225E0
2.968581865E1;1.409533620E0;5.637077332E0;5.938456535E0
2.970413133E1;1.206166029E0;6.316537857E0;5.913830280E0
2.972244322E1;4.475597143E-1;6.532886505E0;5.803636074E0
2.974075829E1;-9.284358621E-1;5.534231186E0;4.914846897E0
2.975908006E1;-1.672529340E0;4.544756889E0;2.272099495E0
2.977739165E1;-2.235819578E0;3.577960968E0;-1.692086697E0
2.979570408E1;9.257197380E-2;2.200518131E0;-4.569194794E0
2.981401695E1;1.353044271E0;-2.867071152E0;-6.316907406E0
2.983232896E1;5.223908424E-1;-1.025932407E1;-7.497480392E0
2.985064165E1;-1.700661659E0;-1.014543915E1;-7.179105759E0
2.986895439E1;-1.168883324E0;-4.469202995E0;-5.446591377E0
2.988726720E1;-2.447961807E0;2.163894653E0;-2.510445118E0
2.990557915E1;-2.698622704E0;6.947815418E0;-1.713499069E0
2.992389183E1;-3.312381268E0;7.576910973E0;8.616051674E-1
2.994219609E1;-2.761559963E0;3.576050758E0;-2.540353537E0
2.996051915E1;-3.004254341E0;-7.060523987E0;1.080514717E1
2.997883012E1;-1.946367621E0;-1.899276924E1;1.775299835E1
2.999714330E1;2.264059782E0;-1.900416374E1;7.376126289E0
3.001545463E1;4.803948879E0;-5.207234383E0;-1.032564640E0
3.003376744E1;2.193471193E0;1.038330078E0;2.820769310E0
3.005207963E1;7.207801342E-1;3.299787045E0;3.236774206E0
3.007038634E1;3.489031792E-1;3.105786324E0;4.976654530E0
3.008870494E1;6.489393711E-1;2.494398117E0;4.706971169E0
3.010701762E1;1.551998138E0;2.155508995E0;3.477760315E0
3.012533012E1;1.898721933E0;1.935674667E0;8.953114152E-1
3.014364256E1;7.306640148E-1;1.781222820E0;-3.653670788E0
3.016194127E1;-5.951716900E-1;2.252408028E0;-4.903328419E0
3.018026762E1;-1.258019567E0;2.411762238E0;-2.422183514E0
3.019857896E1;-9.136128426E-1;2.152479172E0;5.719240010E-2
3.021689293E1;2.194931507E-1;2.215542793E0;1.346740603E0
3.023520543E1;6.001632214E-1;2.189523697E0;1.025085330E0
3.025351836E1;-1.645436287E-1;2.012285709E0;-1.075829983E0
3.027183043E1;-9.104760885E-1;9.936561584E-1;-4.346729755E0
3.029014305E1;-3.980920315E-1;3.054857254E-1;-5.414952278E0
3.030845561E1;1.531434536E0;3.722925186E-1;-4.374240398E0
3.032676860E1;4.827869415E0;3.763389587E-1;-2.618145466E0
3.034508061E1;8.153320312E0;-4.792385101E-1;-1.603495955E0
3.036339305E1;9.178639412E0;-5.853395462E-1;-1.665763617E0
3.038170598E1;6.050641537E0;2.323293686E-1;-3.386192322E0
3.040001982E1;1.586878300E0;-1.770706177E-1;-4.771965027E0
3.041833092E1;-4.952293634E-1;-1.400607109E0;-4.746207237E0
3.043664366E1;1.422039747E0;-2.605442047E0;-3.557266235E0
3.045495634E1;4.369166374E0;-3.453733444E0;-2.592695951E0
3.047326878E1;4.759952545E0;-3.804716110E0;-1.218390465E0
3.049158110E1;3.375573397E0;-3.061216354E0;1.002311945E0
3.050989384E1;3.520764112E0;-2.665520668E0;3.392436743E0
3.052820762E1;1.113101244E0;-3.122696877E0;5.897000790E0
3.054651933E1;-1.221261501E0;-5.313392639E0;6.887423038E0
3.056483134E1;-2.695387363E0;-8.889248848E0;2.212074757E0
3.058313921E1;-3.236402988E0;-1.071297455E1;-8.547900915E-1
3.060145634E1;-2.221919537E0;-7.234788895E0;2.133924961E-1
3.061976939E1;-1.234693646E0;-2.132061958E0;1.917265534E0
3.063808159E1;-1.749896646E0;1.123365402E0;3.080551147E0
3.065639494E1;-2.377329350E0;2.630281925E0;3.968345165E0
3.067470683E1;-1.948379517E0;3.407982826E0;4.263543129E0
3.069301964E1;-1.241387486E0;4.121058941E0;4.750122547E0
3.071132719E1;-6.085129976E-1;4.576662064E0;5.168191910E0
3.072964439E1;8.245420456E-2;4.806327820E0;5.901506901E0
3.074795708E1;2.978495359E-1;5.251869678E0;6.508303642E0
3.076626958E1;3.792407513E-1;5.703594208E0;6.627127647E0
3.078456657E1;-6.513319016E-1;5.382314682E0;6.290932178E0
3.080289482E1;-1.692477942E0;4.459643364E0;4.634389877E0
3.082120714E1;-2.172349691E0;3.596071243E0;1.616964817E0
3.083951524E1;-2.407207966E0;2.943849087E0;-2.260094643E0
3.085783232E1;-1.516162157E0;7.871003151E-1;-4.903117657E0
3.087614488E1;1.236641407E-1;-4.272701263E0;-5.165092945E0
3.089445732E1;5.596423149E-1;-1.055110836E1;-6.927492619E0
3.091277037E1;-1.894385576E0;-9.547230721E0;-6.148479462E0
3.093108281E1;-1.922104120E0;-3.931465149E0;-5.070667267E0
3.094939506E1;-1.835955381E0;1.399277687E0;-2.671320438E0
3.096770671E1;-1.183461189E0;5.394918919E0;-3.188311100E0
3.098602031E1;-1.379480600E0;4.564852715E0;-2.845093250E0
3.100433287E1;-4.420700073E-1;-1.801445961E0;-2.059956074E0
3.102264232E1;3.985996246E-1;-9.634855270E0;1.044183350E1
3.104095781E1;4.189627171E-1;-1.193893433E1;1.145565796E1
3.105927055E1;1.255611897E0;-6.885381699E0;4.622479439E0
3.107758311E1;1.932122707E-1;2.687129974E-1;1.225379944E0
3.109589555E1;7.497620583E-2;1.731687546E0;3.851802826E0
3.111420811E1;4.426507950E-1;1.137284279E0;3.956803799E0
3.113252086E1;7.436487675E-1;5.456256866E-1;6.148143768E0
3.115083324E1;1.293939352E0;8.654537201E-1;5.115509987E0
3.116914702E1;2.389793158E0;1.475148201E0;3.353555202E0
3.118745854E1;2.902858257E0;1.505319595E0;2.149425268E0
3.120577135E1;9.051141739E-1;1.637573242E-1;-8.349320292E-1
3.122406932E1;-1.689166188E0;-3.559112549E-2;-5.364882469E0
3.124239574E1;-1.587716341E0;1.423421860E0;-5.664295673E0
3.126070860E1;-1.503033876E0;2.672639847E0;-2.620738745E0
3.127902153E1;-1.268432856E0;3.269128799E0;-5.269657969E-1
3.129733531E1;-1.073933363E0;2.835869789E0;7.439238429E-1
3.131564659E1;-8.438014984E-1;1.397294044E0;1.734896302E-1
3.133395879E1;-8.285970688E-1;1.846523285E-1;-1.759766579E0
3.135226695E1;-4.644188881E-1;-3.983182907E-1;-3.071086645E0
3.137058409E1;4.412584305E-1;-3.731632233E-2;-3.449230194E0
3.138889653E1;2.162903547E0;6.495199203E-1;-3.491408348E0
3.140720818E1;3.636584997E0;5.731029510E-1;-3.072280407E0
3.142552183E1;4.833674908E0;3.861083984E-1;-2.211200237E0
3.144383427E1;5.581387043E0;5.069475174E-1;-1.213696599E0
3.146213512E1;4.606842041E0;7.854175568E-1;-1.360112309E0
3.148045341E1;2.746078491E0;4.860630035E-1;-2.644788980E0
3.149877397E1;1.546113729E0;-4.127779007E-1;-4.224997520E0
3.151708446E1;1.293378592E0;-9.069938660E-1;-5.015505791E0
3.153539732E1;1.967713833E0;-7.527656555E-1;-4.410598755E0
3.155370952E1;4.268569946E0;-1.934993744E0;-4.621191025E0
3.157202232E1;5.394499302E0;-3.334516525E0;-3.690227747E0
3.159033446E1;3.847914219E0;-3.169130325E0;-5.115626454E-1
3.160864610E1;2.446586847E0;-3.246070862E0;5.322021961E0
3.162695970E1;1.105902910E0;-4.735782623E0;8.169747353E0
3.164527257E1;-8.804423809E-1;-7.846631050E0;9.421021461E0
3.166358476E1;-1.585469961E0;-1.141094494E1;-1.105051041E-1
3.168189769E1;-6.935522556E-1;-9.152995110E0;-2.076463223E0
3.170021031E1;1.257059574E0;-4.627156258E0;-1.267398596E0
3.171852299E1;1.166016817E0;-6.863222122E-1;1.669307709E0
3.173683623E1;2.647869587E-1;1.224822998E0;3.916488171E0
3.175514757E1;-9.207565784E-1;2.519999027E0;4.177950859E0
3.177346025E1;-1.561203837E0;4.075725555E0;4.265920162E0
3.179177312E1;-1.353904963E0;5.430660248E0;4.712367058E0
3.181008806E1;-9.499042034E-1;5.805738449E0;5.429879665E0
3.182839799E1;-8.119964600E-2;5.769439697E0;6.336619377E0
3.184671074E1;-6.018342972E-1;5.475298882E0;6.393392563E0
3.186502299E1;-2.005349398E0;4.992706299E0;6.015653133E0
3.188333549E1;-2.705430031E0;4.495725632E0;4.896538734E0
3.190164793E1;-3.096437931E0;3.482101440E0;2.904689312E0
3.191994768E1;-2.895524502E0;2.222167015E0;6.272578239E-1
3.193826421E1;-2.254862070E0;7.687349319E-1;-1.132692814E0
3.195657506E1;-5.143926144E-1;-1.895213127E0;-2.814898014E0
3.197488780E1;6.506288052E-1;-6.757655144E0;-5.431506157E0
3.199319981E1;9.881782532E-1;-8.135075569E0;-9.330157280E0
3.201151195E1;-1.048760176E0;-4.912745476E0;-7.785759926E0
3.202983623E1;-3.374960423E-1;-3.525791168E-1;-5.167420387E0
3.204814763E1;1.727485657E-2;4.640285492E0;-2.602730274E0
3.206646208E1;-3.075382710E-1;5.106632233E0;-1.656071663E0
3.208477397E1;3.179342747E-1;-8.041067123E-1;1.210989475E0
3.210308324E1;2.392101288E0;-9.550681114E0;1.291639423E1
3.212139268E1;-1.044088960E0;-1.377504063E1;1.480061626E1
3.213971153E1;-5.495998859E-1;-1.012435627E1;7.032797813E0
3.215802428E1;1.077390432E0;-2.280481339E0;-7.527008057E-1
3.217633757E1;-2.739413977E0;8.356103897E-1;-2.407748699E-1
3.219464922E1;-4.294879913E0;1.246229172E0;1.959819078E0
3.221296178E1;-3.284077883E0;1.703958511E0;1.784812689E0
3.223127446E1;-1.457648039E0;1.874402046E0;1.405790329E0
3.224958146E1;6.222372055E-1;1.986018181E0;1.409398079E0
3.226789915E1;1.926079988E0;2.340197086E0;2.726035118E0
3.228619768E1;2.343657732E0;2.318867207E0;3.014954805E0
3.230451329E1;1.522384405E0;2.405048370E0;1.832267046E0
3.232283696E1;7.949469090E-1;2.945047379E0;8.217247725E-1
3.234114946E1;8.366949558E-1;3.202114582E0;5.500177145E-1
3.235945848E1;1.004465342E0;3.261329651E0;-1.689582109E0
3.237777617E1;-9.603667259E-2;1.332173824E0;-5.728299141E0
3.239608720E1;-1.987256527E0;-2.428178787E-1;-7.515196800E0
3.241439976E1;-2.705743313E0;-1.722383499E-1;-6.125364780E0
3.243271226E1;-1.800419807E0;1.509056091E-1;-4.644592285E0
3.245102519E1;1.448586941E0;9.485597610E-1;-3.081969261E0
3.246933745E1;4.998389244E0;1.483237267E0;-9.793770313E-1
3.248764995E1;6.808428764E0;8.111991882E-1;2.934029102E-1
3.250596245E1;6.444463253E0;9.456624985E-1;-9.718120098E-2
3.252427519E1;3.436579943E0;1.292089462E0;-2.206175089E0
3.254258488E1;1.136457920E-1;-6.997947693E-1;-5.668420792E0
3.256088597E1;-3.557121754E-1;-2.539117813E0;-6.763044834E0
3.257920177E1;3.062195301E0;-2.189371109E0;-5.038359642E0
3.259751433E1;7.183332443E0;-3.116085052E0;-2.458250046E0
3.261582713E1;8.414476395E0;-3.907036781E0;-1.067756414E0
3.263413921E1;5.770447731E0;-2.883733749E0;1.890218258E-1
3.265245225E1;3.667557478E0;-2.760049820E0;1.242554903E0
3.267076573E1;5.766613483E-1;-4.075663567E0;3.516959190E0
3.268908311E1;-2.893631458E0;-7.012464523E0;5.730527401E0
3.270738951E1;-7.037299156E0;-1.148286915E1;3.027643681E0
3.272570354E1;-8.528064728E0;-1.187681961E1;-5.776621103E-1
3.274401555E1;-4.053030014E0;-5.929183006E0;-8.706021309E-2
3.276232792E1;-1.680278778E0;-1.397804260E0;8.862390518E-1
3.278064079E1;-1.498271704E0;6.817855835E-1;1.798543453E0
3.279895152E1;-1.193447113E-1;1.434077263E0;3.639529228E0
3.281726695E1;6.763496399E-1;2.258604050E0;4.186486244E0
3.283557744E1;9.035136700E-1;3.579728603E0;4.373517036E0
3.285389042E1;1.108673573E0;5.564218998E0;5.046550751E0
3.287220341E1;1.092305183E0;6.595046043E0;5.237544537E0
3.289051536E1;1.798745394E-1;6.286787033E0;5.465290070E0
3.290882848E1;-9.657185078E-1;6.284128189E0;5.756305695E0
3.292713750E1;-1.541473866E0;6.516644478E0;5.690526962E0
3.294545262E1;-2.096664667E0;6.046123028E0;4.266631126E0
3.296376536E1;-2.530016899E0;4.933841705E0;6.835889816E-1
3.298208897E1;-2.295796633E0;3.827722549E0;-3.764507771E0
3.300040172E1;4.719417095E-1;2.305987358E0;-6.678863049E0
3.301871562E1;2.001858711E0;-5.698211670E0;-7.274926662E0
3.303702720E1;5.720903873E-1;-1.240427685E1;-5.412017822E0
3.305533946E1;-2.984713793E0;-9.302944183E0;-4.249671936E0
3.307365190E1;-2.125733376E0;-2.575635910E0;-3.636220694E0
3.309196489E1;-2.924352407E0;3.075872898E0;-2.619107246E0
3.311027745E1;-4.754250526E0;5.581855774E-1;-2.850359917E0
3.312858964E1;-4.308393478E0;-8.323045731E0;1.207389832E-1
3.314690355E1;-2.509836197E0;-1.282983780E1;1.285971260E1
3.316521464E1;1.327996492E0;-9.364815712E0;1.012637043E1
3.318352739E1;3.571804523E0;-1.202569962E0;4.196383476E0
3.320183964E1;3.326701403E0;2.528721333E0;4.236949921E0
3.322015355E1;3.470735788E0;2.372944355E0;4.294225693E0
3.323846477E1;3.399152040E0;7.213201523E-1;5.492048264E0
3.325677769E1;2.712407351E0;3.868961334E-1;6.228114605E0
3.327509019E1;2.917615414E0;9.954843521E-1;4.582468033E0
3.329340263E1;3.775765896E0;1.749616623E0;2.499652386E0
3.331171495E1;1.992065191E0;2.360790253E0;-2.726633787E0
3.333002196E1;-1.044654012E0;1.614960670E0;-6.052422047E0
3.334834038E1;-2.488034725E0;8.251276016E-1;-5.678649426E0
3.336665282E1;-1.480419755E0;1.043224335E0;-3.519619226E0
3.338496538E1;1.034374237E-1;1.852140427E0;-2.041083336E0
3.340327354E1;3.686470985E-1;2.377785683E0;-1.109532356E0
3.342159062E1;1.574144363E-1;2.535907269E0;-7.276010513E-1
3.343990312E1;1.414225101E-1;2.433462143E0;-6.136891842E-1
3.345821446E1;2.482781410E-1;2.273581505E0;-5.850113034E-1
3.347652617E1;1.181805134E-1;1.647243500E0;-1.540894151E0
3.349484086E1;1.866312027E-1;6.537876129E-1;-4.713324070E0
3.351315343E1;1.135185003E0;-1.400642395E-1;-6.027584553E0
3.353146116E1;3.632190466E0;-5.509033203E-1;-3.459650040E0
3.354977891E1;6.674550533E0;-1.089515686E0;-1.070168018E0
3.356809111E1;7.382721901E0;-8.402328491E-1;-9.130030870E-1
3.358640141E1;6.155266285E0;-1.142921448E-1;-2.989003420E0
3.360471611E1;4.739576340E0;8.588867188E-1;-4.609897137E0
3.362302873E1;5.390153408E0;-2.067098618E-1;-3.599617958E0
3.364134111E1;7.102910995E0;-2.212226868E0;-3.541200638E0
3.365965507E1;6.262760639E0;-2.652276039E0;-2.213046074E0
3.367796635E1;4.060165405E0;-2.140295982E0;-3.619158268E-2
3.369627934E1;2.521031618E0;-3.097026825E0;4.031758785E0
3.371459166E1;9.486007690E-2;-6.434407234E0;7.325324535E0
3.373290379E1;-3.479394197E0;-1.139539719E1;7.933323860E0
3.375121654E1;-7.010233879E0;-1.542443752E1;5.019875765E-1
3.376952574E1;-4.730317593E0;-9.918578148E0;-1.216789842E0
3.378784300E1;-1.968991399E0;-3.747358322E0;4.427418709E-1
3.380615428E1;-1.461833358E0;1.802110672E-1;1.543394566E0
3.382446678E1;-2.050503016E0;2.407394886E0;2.985708475E0
3.384277965E1;-2.227970600E0;3.864908218E0;3.667335987E0
3.386109203E1;-1.787927628E0;4.559786797E0;4.259565830E0
3.387940453E1;-1.367221355E0;4.589745522E0;4.643801212E0
3.389770622E1;-6.996903419E-1;4.866281509E0;5.012076378E0
3.391602983E1;1.155443192E-1;5.463109016E0;5.638859272E0
3.393434233E1;1.416528225E-1;6.084877014E0;5.850708961E0
3.395265489E1;-3.960189819E-1;6.510527611E0;6.011492729E0
3.397096123E1;-1.512419224E0;6.447690487E0;5.287664413E0
3.398928014E1;-2.186143398E0;5.538238049E0;2.774172783E0
3.400759239E1;-2.421306372E0;4.823922634E0;-6.259298325E-1
3.402590489E1;-7.814602852E-1;3.787347317E0;-3.143645763E0
3.404421751E1;1.943196535E0;-1.142008781E0;-7.205667973E0
3.406252745E1;1.549656391E0;-1.279827404E1;-9.918202400E0
3.408084257E1;-1.208308935E0;-1.290672207E1;-6.713373184E0
3.409915416E1;-1.941993475E0;-6.355710983E0;-4.767569542E0
3.411746776E1;-1.888015985E0;2.115326881E0;-2.038307667E0
3.413578087E1;-2.614871025E0;8.476286888E0;-5.760922432E-1
3.415409282E1;-3.712630033E0;6.971493244E0;1.244312048E0
3.417240098E1;-1.366085768E0;-1.256875038E0;-4.359008312E0
3.419071806E1;-3.032331944E0;-1.520636368E1;2.188326836E1
3.420903081E1;-1.576352596E0;-2.384678650E1;1.493769932E1
3.422734215E1;5.080965996E0;-1.167691326E1;7.608973980E-1
3.424565880E1;5.828896523E0;-7.993097305E-1;-2.385741472E0
3.426396831E1;1.533984184E0;3.333839893E0;4.101129055E0
3.428228105E1;-4.343835115E-1;4.339430809E0;4.316377640E0
3.430059349E1;-1.166093826E0;3.791278362E0;3.828552723E0
3.431890593E1;-6.182956696E-1;2.440678596E0;3.659751177E0
3.433721764E1;8.329861164E-1;8.342638016E-1;2.574833155E0
3.435553129E1;1.781837940E0;-2.889919281E-2;1.973516345E-1
3.437384386E1;9.277584553E-1;3.854207993E-1;-2.388960838E0
3.439214171E1;-6.954360008E-1;1.267889023E0;-2.591663122E0
3.441046880E1;-5.882384777E-1;1.947484970E0;-1.733880997E0
3.442878276E1;7.207472324E-1;2.465172768E0;-5.328624249E-1
3.444709404E1;1.429256439E0;3.059853077E0;3.266497254E-1
3.446540263E1;1.007173777E0;3.537850380E0;1.846408844E-2
3.448371910E1;1.667120457E-1;3.254971504E0;-2.201469421E0
3.450203184E1;-1.920057178E0;1.958529472E0;-3.816571474E0
3.452034404E1;-3.075748682E0;9.695959091E-1;-4.333193779E0
3.453865678E1;-3.227819443E0;1.146888733E-2;-5.036516190E0
3.455697075E1;5.989031792E-1;2.182483673E-2;-4.339964867E0
3.457528233E1;5.922535896E0;-9.659671783E-2;-2.415034533E0
3.459359740E1;9.532186508E0;-1.993627548E-1;-8.876237273E-1
3.461189543E1;1.003425026E1;3.325986862E-1;-9.493839741E-2
3.463021953E1;8.929181099E0;1.863369465E0;-1.293033600E0
3.464853239E1;7.001909733E0;2.631899834E0;-3.215572357E0
3.466684477E1;6.222419739E0;-2.165193558E-1;-3.710021973E0
3.468515727E1;7.880584717E0;-2.732409477E0;-3.612060547E0
3.470346971E1;6.189793110E0;-3.075178146E0;-2.626178265E0
3.472178227E1;3.707686186E0;-3.933282852E0;5.694339871E-1
3.474008897E1;2.271610737E0;-6.355561256E0;5.416287422E0
3.475840806E1;-2.580415249E0;-1.117975426E1;9.014767647E0
3.477672002E1;-7.965247154E0;-1.569087791E1;5.075955391E0
3.479503282E1;-7.321953773E0;-1.300812912E1;-1.089600444E0
3.481334038E1;-3.706706047E0;-6.181065559E0;-9.978431463E-1
3.483165837E1;-2.088018417E0;-2.493367195E0;5.110106468E-1
3.484997002E1;-1.246676207E0;-5.395298004E-1;2.131705761E0
3.486828276E1;-1.608893156E0;4.813671112E-1;2.978026390E0
3.488659526E1;-1.733148932E0;1.873061657E0;3.925932646E0
3.490489598E1;-1.907162666E0;3.544260979E0;4.652401924E0
3.492322044E1;-1.799197435E0;5.003894806E0;4.893784046E0
3.494153325E1;-1.434024692E0;5.604250908E0;5.206135273E0
3.495984550E1;-5.597708225E-1;5.925193787E0;5.592415810E0
3.497815806E1;-3.411337137E-1;6.212517262E0;5.778095722E0
3.499646782E1;-5.102277994E-1;6.420236111E0;5.870032310E0
3.501478361E1;-9.030596018E-1;6.075074196E0;5.577210426E0
3.503309605E1;-1.471394300E0;5.462287903E0;4.023382187E0
3.505140825E1;-1.942663908E0;4.655483723E0;1.333607435E0
3.506972215E1;-2.087727547E0;3.963306427E0;-2.459620476E0
3.508803410E1;4.806318283E-1;1.215350151E0;-5.390626431E0
3.510634691E1;2.594435930E0;-6.649868011E0;-4.949459553E0
3.512465849E1;5.404181480E-1;-1.376600075E1;-7.655052185E0
3.514297270E1;-2.310842276E0;-1.020506001E1;-5.308624268E0
3.516128374E1;-5.362526178E-1;-2.778945923E0;-4.293474197E0
3.517959184E1;-2.922795773E0;3.637737274E0;-3.370520592E0
3.519791002E1;-3.775720358E0;5.383460045E0;-6.487179756E0
3.521622148E1;-3.774708271E0;-1.052736282E0;-3.903998852E0
3.523453428E1;-1.794931293E0;-1.117764759E1;2.243620872E0
3.525284190E1;9.183865786E-1;-1.336065865E1;1.608213425E1
3.527115904E1;3.140896797E0;-6.259936333E0;1.003620529E1
3.528946837E1;3.053284645E0;1.463301659E0;3.995853424E0
3.530778447E1;1.294798851E0;3.652266502E0;3.497524500E0
3.532609691E1;3.656239510E-1;1.995553970E0;4.213850021E0
3.534440947E1;1.353104591E0;-4.431715012E-1;5.912749290E0
3.536272179E1;2.510485411E0;-1.108239174E0;4.825018883E0
3.538102892E1;3.819066048E0;-8.722686768E-1;3.118066311E0
3.539934691E1;4.462685108E0;-1.387548447E-1;6.656006575E-1
3.541765709E1;2.149301052E0;8.783292770E-1;-2.337101936E0
3.543596269E1;-5.629167557E-1;1.320839882E0;-2.219880581E0
3.545427336E1;-1.643447995E0;2.019605637E0;-1.787379980E0
3.547258757E1;-1.662967205E0;2.569136620E0;-1.760932088E0
3.549089964E1;-1.317145467E0;2.813901424E0;-1.995733261E0
3.550921159E1;-1.866066217E0;2.467608452E0;-1.480160713E0
3.552753825E1;-1.986653924E0;2.001313210E0;-1.836870432E0
3.554584721E1;-1.950813174E0;1.377293587E0;-2.146362782E0
3.556416020E1;-1.291394234E0;8.416509628E-1;-1.474751472E0
3.558246947E1;1.960947514E-1;7.570629120E-1;-1.237609386E0
3.560078520E1;1.800710440E0;7.080049515E-1;-1.829093456E0
3.561909764E1;3.984105349E0;6.293277740E-1;-2.829257011E0
3.563740898E1;6.140838146E0;7.215890884E-1;-2.460385323E0
3.565572294E1;7.894710064E0;1.572769642E0;-1.580841303E0
3.567403575E1;6.807469368E0;2.664892197E0;-1.115315676E0
3.569234819E1;3.550189018E0;1.579657555E0;-2.274616718E0
3.571066038E1;2.057352781E0;-1.025157928E0;-5.243096352E0
3.572897325E1;1.134746075E0;-2.047510147E0;-5.914061069E0
3.574728502E1;4.159152985E0;-2.494804382E0;-3.816841602E0
3.576559819E1;8.114322662E0;-3.852587700E0;-2.530459166E0
3.578391093E1;7.742496014E0;-3.999141693E0;-1.353781700E0
3.580222313E1;4.253578663E0;-2.630031586E0;7.423112392E-1
3.582053648E1;2.527912378E0;-2.120742798E0;4.068688869E0
3.583883763E1;-7.278964520E-1;-4.194295883E0;7.250248909E0
3.585716032E1;-5.386704922E0;-8.918792725E0;8.327231407E0
3.587547362E1;-8.211009026E0;-1.368066788E1;1.169070363E0
3.589378642E1;-5.485463142E0;-1.082899952E1;-2.932752609E0
3.591210326E1;-2.612507582E0;-4.719763756E0;-2.857232094E-1
3.593041142E1;-1.987004519E0;-1.326599121E-1;1.961639762E0
3.594872392E1;-2.320084333E0;2.392053604E0;2.106469154E0
3.596703789E1;-2.104935408E0;3.663332939E0;2.792974472E0
3.598533720E1;-1.586696625E0;4.345802307E0;3.497506857E0
3.600366167E1;-2.201311588E-1;4.874614239E0;4.053882122E0
3.602196934E1;8.159824610E-1;5.268863678E0;4.610907555E0
3.604028715E1;1.697075248E0;5.631351471E0;5.652922153E0
3.605859923E1;1.527456641E0;5.863426208E0;6.011888504E0
3.607691173E1;8.506385088E-1;6.361685753E0;5.851945400E0
3.609522441E1;-1.999861002E-1;6.227591991E0;5.436157227E0
3.611353728E1;-1.585107803E0;5.468770504E0;4.264656067E0
3.613184941E1;-2.076743126E0;4.594701290E0;1.800457478E0
3.615015611E1;-2.501085043E0;3.294046879E0;-1.560988426E0
3.616847478E1;-4.341502190E-1;1.636083126E0;-4.891155243E0
3.618678740E1;1.478916883E0;-4.372013092E0;-8.967793465E0
3.620508690E1;1.029235125E0;-1.302376366E1;-1.107690716E1
3.622340166E1;-5.815989971E-1;-1.099069691E1;-4.295873642E0
3.624171385E1;-8.542559147E-1;-4.935656548E0;-4.109498978E0
3.626002678E1;-3.273745060E0;4.129190445E-1;-4.285188675E0
3.627833836E1;-5.626273632E0;-2.731931686E0;-7.299085140E0
3.629665068E1;-5.561430931E0;-9.536620140E0;-1.921579838E0
3.631497514E1;-1.944377065E0;-1.068924999E1;1.052648163E1
3.633328795E1;1.753355503E0;-4.450158119E0;1.448938847E1
3.635160039E1;2.210780144E0;1.819861412E0;8.795869827E0
3.636991295E1;1.628574133E0;5.017492294E0;5.919971466E0
3.638822539E1;7.165527344E-1;3.755560875E0;4.765531063E0
3.640653813E1;1.242832661E0;3.126335144E-2;6.788064957E0
3.642485014E1;8.875200748E-1;-2.814805031E0;7.596176147E0
3.644316289E1;2.202465773E0;-2.333272934E0;4.944251060E0
3.646146440E1;4.475033283E0;-1.651558876E0;1.604086041E0
3.647977690E1;4.617352486E0;2.832918167E-1;-5.224309921E0
3.649808946E1;1.007170439E0;6.490545273E-1;-5.136895180E0
3.651640251E1;-1.618843555E0;5.103387833E-1;-3.327731848E0
3.653471635E1;-1.952292442E0;1.211216927E0;-2.259653091E0
3.655302757E1;-1.389593959E0;2.254805088E0;-1.715675354E0
3.657133989E1;-2.100901127E0;2.874657631E0;-3.274187148E-1
3.658965202E1;-2.163203955E0;2.806519985E0;3.785865903E-1
3.660796519E1;-1.662262797E0;2.301024437E0;1.995181739E-1
3.662627904E1;-1.443055391E0;1.578728199E0;-2.947469950E-1
3.664459062E1;-1.070506573E0;9.351005554E-1;-1.503795147E0
3.666290239E1;-5.116820335E-2;7.021131516E-1;-3.579878569E0
3.668121568E1;2.008885860E0;8.087921143E-1;-3.990894556E0
3.669952861E1;4.513545513E0;4.189834595E-1;-2.971720695E0
3.671783970E1;6.537483215E0;3.677778244E-1;-1.397847891E0
3.673616417E1;7.356485367E0;1.101985931E0;-1.380186081E-1
3.675447661E1;6.356972218E0;2.338883400E0;-5.483205318E-1
3.677278941E1;3.560579062E0;2.372954369E0;-3.091661930E0
3.679109581E1;1.524732590E0;1.923637390E-1;-5.131374359E0
3.680941490E1;1.042278767E0;-1.152801514E0;-5.765744686E0
3.682772679E1;3.354277134E0;-1.471469879E0;-4.759138107E0
3.684603960E1;6.950892448E0;-1.917344093E0;-3.572812319E0
3.686435185E1;7.856092930E0;-3.253356934E0;-1.946022749E0
3.688266429E1;5.491516113E0;-3.040086746E0;-1.588618159E-1
3.690097734E1;3.054425716E0;-2.617533684E0;2.777694702E0
3.691928862E1;9.428477287E-2;-3.769696236E0;5.798835278E0
3.693760210E1;-4.905412197E0;-7.536952972E0;7.231752872E0
3.695591478E1;-8.118324280E0;-1.246325779E1;1.358866215E0
3.697422734E1;-5.834382057E0;-1.221609116E1;-4.122416973E0
3.699254045E1;-2.584441185E0;-5.938649178E0;-3.211773157E0
3.701085258E1;-2.053244352E0;-9.790077209E-1;2.364397049E-1
3.702916508E1;-1.895338655E0;1.079654217E0;2.821601391E0
3.704747667E1;-1.710763216E0;1.837281227E0;3.717420101E0
3.706579014E1;-1.021895170E0;2.771824837E0;3.998849869E0
3.708410258E1;-2.815015316E-1;3.809936047E0;4.359130383E0
3.710241222E1;3.294827938E-1;4.820183754E0;4.756253242E0
3.712072758E1;8.921998739E-1;5.564792633E0;5.402054310E0
3.713904063E1;9.882061481E-1;6.048688889E0;5.652863026E0
3.715735283E1;7.063635588E-1;6.357859612E0;5.473277569E0
3.717566539E1;-8.629703522E-2;6.216062069E0;4.904083252E0
3.719397807E1;-1.492186308E0;5.586959362E0;3.594608068E0
3.721229106E1;-2.036426783E0;4.815564156E0;7.100439072E-1
3.723060295E1;-2.410987377E0;3.726496220E0;-2.828536987E0
3.724891698E1;-4.720025063E-1;2.046824455E0;-5.596955776E0
3.726722764E1;3.053401232E0;-3.066364288E0;-7.691141129E0
3.728554106E1;1.827689171E0;-1.094865799E1;-6.007788181E0
3.730385356E1;-2.375331879E0;-1.084694958E1;-5.280098915E0
3.732216582E1;-2.178008556E0;-4.981631279E0;-5.632051468E0
3.734047856E1;-3.598813057E0;2.852463722E0;-2.603184223E0
3.735877958E1;-4.545623779E0;6.139580250E0;-2.375758648E0
3.737710478E1;-5.908642292E0;1.099093437E0;-2.623084068E0
3.739541630E1;-5.546501160E0;-1.007135773E1;3.213228464E0
3.741372880E1;-3.187864304E0;-1.541856670E1;1.539905548E1
3.743203685E1;2.074710369E0;-1.134058189E1;9.611162186E0
3.745035387E1;4.310893059E0;-1.057271004E0;4.599138260E0
3.746866630E1;3.963734150E0;2.843804359E0;4.577718735E0
3.748697905E1;2.768380880E0;2.322611332E0;5.162256241E0
3.750529161E1;1.980677366E0;-3.945016861E-1;6.642063141E0
3.752360429E1;2.741048574E0;-1.420868874E0;5.248404503E0
3.754191679E1;3.976787090E0;-6.899757385E-1;2.303924084E0
3.756022343E1;3.719688654E0;1.257922173E0;-1.459331632E0
3.757854234E1;8.741312027E-1;2.234272957E0;-3.168423891E0
3.759685435E1;-1.443188429E0;2.102935791E0;-3.402139187E0
3.761516710E1;-1.474254966E0;2.289279938E0;-2.610488892E0
3.763347954E1;-6.930067539E-1;2.754298687E0;-2.011708736E0
3.765179234E1;-3.698976040E-1;2.991200447E0;-1.058306217E0
3.767010448E1;-4.389481544E-1;3.138780594E0;-3.422564864E-1
3.768841612E1;-2.185478210E-1;2.640092373E0;-1.353527904E0
