"Time (s)";"Linear Acceleration x (m/s^2)";"Linear Acceleration y (m/s^2)";"Linear Acceleration z (m/s^2)"
1.659997450E-1;-3.706589341E-2;7.023072243E-2;1.783370972E-2
1.843118790E-1;3.957659751E-2;9.131431580E-5;-1.016283035E-1
2.026230360E-1;3.937935829E-2;-7.851862907E-2;-1.183300018E-1
2.209352310E-1;-7.700274885E-2;-1.268315315E-2;-6.869316101E-2
2.392465100E-1;-2.069823593E-1;8.822536469E-2;-1.572427750E-1
2.575584000E-1;-2.657286823E-1;9.863495827E-2;-7.551479340E-2
2.758694350E-1;-1.352074444E-1;5.439519882E-2;2.000522614E-2
2.941815690E-1;-9.360289574E-2;-4.239296913E-2;1.810121536E-1
3.124933370E-1;-1.096946001E-1;3.342032433E-2;2.891130447E-1
3.308063860E-1;-2.079099566E-1;1.363596916E-1;1.513414383E-1
3.491166890E-1;-1.657458693E-1;4.367876053E-2;1.676111221E-1
3.674284560E-1;-6.815397739E-2;2.464413643E-2;1.066093445E-1
3.857404680E-1;-2.055541128E-1;1.540899277E-3;-2.867002487E-1
4.040519910E-1;-1.447327435E-1;-8.279037476E-2;-2.794055939E-1
4.223632710E-1;3.602012992E-2;-2.401552200E-1;9.922885895E-2
4.406754650E-1;-4.782915115E-3;-5.700135231E-2;1.049470901E-1
4.589881480E-1;-1.981239021E-1;2.961621284E-1;-6.889247894E-2
4.772987570E-1;-3.687222004E-1;1.148102283E-1;6.702041626E-2
4.956102800E-1;-1.647535414E-1;-8.822822571E-2;-2.381105423E-1
5.139172870E-1;-3.377693892E-2;-2.985215187E-1;-4.540824890E-2
5.322338760E-1;1.689234674E-1;-5.325131416E-1;2.861194611E-1
5.505427140E-1;-1.886415482E-2;-1.745631695E-1;6.199045181E-1
5.688568620E-1;-4.761131108E-1;2.443480492E-1;5.179691315E-1
5.871700950E-1;-4.295695424E-1;3.243141174E-1;1.124343872E-1
6.054809460E-1;-7.183814645E-1;3.313822746E-1;-4.481687546E-1
6.237966200E-1;-2.629414499E-1;-1.299142838E-2;-2.170085907E-1
6.420990500E-1;6.824039817E-1;-3.386719227E-1;2.818651199E-1
6.604046520E-1;-2.913948894E-1;-4.614782333E-2;-4.734058380E-1
6.787275280E-1;-7.606390715E-1;1.210882664E-1;-1.418436527E0
6.970389910E-1;-2.856683433E-1;1.099998951E-1;-1.181042671E0
7.153505750E-1;9.366977215E-2;-3.007712364E-1;2.467870712E-1
7.336625870E-1;8.691477776E-2;-7.240402699E-1;1.912188530E0
7.519742940E-1;-2.214322686E-1;-8.906401396E-1;3.332904816E0
7.702799570E-1;1.164883375E-1;1.223461628E-1;3.985252380E-1
7.885973410E-1;-8.813669682E-1;-3.730013371E-1;-1.613612652E0
8.069103900E-1;-3.846285343E-1;-4.899294376E-1;-1.056901932E0
8.252211810E-1;4.402807951E-1;-6.430914402E-1;-2.180576324E-1
8.435327650E-1;3.536392450E-1;-4.851617813E-1;8.981323242E-2
8.618361700E-1;-1.916480064E-2;-3.478868008E-1;3.142166138E-2
8.801561170E-1;-2.734899521E-1;-2.451455593E-1;-1.977624893E-1
8.984664810E-1;-2.036715746E-1;-1.943278313E-1;-5.093822479E-1
9.167795300E-1;-7.778155804E-2;-3.617234230E-1;-7.429952621E-1
9.350909320E-1;-1.951313019E-2;-6.526243687E-1;-6.703395844E-1
9.534027600E-1;1.665568352E-1;-5.868452787E-1;-4.246234894E-1
9.717147720E-1;-1.007318497E-3;-6.041514874E-1;-3.435440063E-1
9.900226940E-1;-1.564306021E-1;-3.383609056E-1;-4.241313934E-1
1.008337819E0;7.753670216E-2;-1.295526028E-1;-2.446899414E-1
1.026652761E0;2.688113451E-1;-8.856093884E-2;-1.651687622E-1
1.044961659E0;7.338507175E-1;3.719239235E-1;-1.770524979E-1
1.063273183E0;1.132234931E0;7.986750603E-1;-3.205595016E-1
1.081584706E0;8.825668097E-1;3.782827854E-1;8.467388153E-2
1.099894948E0;1.573097706E-1;5.064988136E-2;3.506631851E-1
1.118208180E0;-1.485962868E-1;-2.215595841E-1;3.181037903E-1
1.136520009E0;-1.333798766E-1;-3.653186560E-1;5.843553543E-1
1.154831532E0;-5.379283428E-2;-4.746285081E-1;1.121118546E0
1.173143361E0;-6.929218769E-2;-5.658058524E-1;1.078204155E0
1.191455007E0;-2.360486984E-1;-5.498849750E-1;7.448434830E-1
1.209766774E0;-4.923803210E-1;-5.605276823E-1;1.116852760E0
1.228079274E0;-5.782408118E-1;-7.228429317E-1;1.089729309E0
1.246390065E0;-5.392284393E-1;-6.381943226E-1;4.740867615E-1
1.264701955E0;-5.386990905E-1;-3.978694677E-1;-2.655820847E-1
1.283008778E0;-4.516410232E-1;-3.156429529E-1;-5.251913071E-1
1.301324880E0;-2.714776993E-1;-4.036672115E-1;-2.924404144E-1
1.319637013E0;-6.356906891E-2;-4.767017365E-1;-1.749801636E-2
1.337947316E0;1.252064705E-1;-4.778870344E-1;2.174701691E-1
1.356260243E0;-3.000509739E-2;-6.486778259E-1;-1.454896927E-1
1.374570302E0;-1.941418648E-1;-6.444242001E-1;-5.425205231E-1
1.392883473E0;3.883481026E-2;-5.438351631E-1;-3.128318787E-1
1.411189442E0;4.659339190E-1;-4.367501736E-1;9.467029572E-2
1.429507497E0;5.832293034E-1;-2.212350368E-1;1.018686295E-1
1.447817555E0;4.499521255E-1;-2.605977058E-1;-2.555723190E-1
1.466130605E0;2.242380381E-1;-2.876009941E-1;-4.376001358E-1
1.484442128E0;3.385046721E-1;-1.370991468E-1;-4.535675049E-1
1.502753957E0;6.416549683E-1;-1.191443205E-1;-4.500961304E-1
1.521065907E0;5.125255585E-1;-1.047524214E-1;-5.633583069E-1
1.539376210E0;3.159133196E-1;-2.159304619E-1;-7.725925446E-1
1.557688038E0;5.404118299E-1;-8.775293827E-2;-7.007446289E-1
1.576000661E0;6.391359568E-1;6.049156189E-3;-2.576484680E-1
1.594312184E0;8.432639837E-1;-5.277597904E-2;-2.897949219E-1
1.612624257E0;7.941524982E-1;-9.154236317E-2;-4.813842773E-1
1.630935964E0;5.602041483E-1;2.580077648E-1;2.265262604E-2
1.649247548E0;6.846798658E-1;3.837229013E-1;9.531459808E-1
1.667560231E0;1.183488607E0;1.093755960E-1;1.145190239E0
1.685870778E0;9.973307848E-1;-8.498013020E-2;3.016986847E-1
1.704182668E0;2.953257561E-1;3.463389874E-1;-4.368209839E-1
1.722494374E0;8.282172680E-2;4.520294666E-1;-6.531791687E-1
1.740806996E0;1.968591213E-1;8.762454987E-2;-8.470830917E-1
1.759117604E0;3.039689064E-1;1.390528679E-2;-9.003973007E-1
1.777429433E0;4.446009398E-1;5.093514919E-2;-1.062637329E0
1.795740956E0;3.324106932E-1;3.236953616E-1;-1.280050278E0
1.814052968E0;3.934576511E-1;4.027289748E-1;-6.876115799E-1
1.832364491E0;1.865674257E-1;1.957494617E-1;-4.427175522E-1
1.850676503E0;-1.255103350E-1;-1.458233595E-1;-5.468797684E-1
1.868989186E0;-2.538284063E-1;-1.699965596E-1;-8.775138855E-1
1.887299245E0;-3.155592680E-1;-1.586120129E-1;-1.309143066E0
1.905611318E0;-8.138679266E-1;-2.816477418E-1;-1.739927292E0
1.923918141E0;-1.267114520E0;-4.373814762E-1;-2.208467007E0
1.942234670E0;-5.025334358E-1;-3.981316388E-1;-2.104070663E0
1.960546132E0;2.772412300E-1;-1.426676512E-1;-1.698243141E0
1.978856679E0;5.470147133E-1;4.166951776E-2;-1.122300148E0
1.997169972E0;1.654670238E-1;3.313288093E-1;-1.059165001E0
2.015478505E0;-2.416274548E-1;2.290258408E-1;-1.106649399E0
2.033792897E0;2.384419441E-1;1.395738870E-1;-1.140662193E0
2.052100331E0;5.591855049E-1;1.288440675E-1;-1.382282257E0
2.070413807E0;5.485873222E-1;5.901377201E-1;-1.258545876E0
2.088728261E0;1.533699036E-2;9.105386138E-1;-4.231204987E-1
2.107042652E0;-9.012813568E-1;9.413135052E-1;-1.115331650E-1
2.125351735E0;-1.457202435E0;6.708482504E-1;-7.821340561E-1
2.143665394E0;-8.056602478E-1;-3.646624088E-2;-7.278871536E-1
2.161975392E0;1.119456291E-1;-5.563795567E-2;7.680816650E-1
2.180280446E0;1.003664017E0;-1.664932966E-1;1.959786892E0
2.198598866E0;1.174222469E0;3.168458939E-1;2.259108543E0
2.216909108E0;4.751114845E-1;4.162461758E-1;1.709882259E0
2.235221852E0;-2.452397346E-1;-8.579730988E-2;8.201370239E-1
2.253533315E0;-3.253335953E-1;-5.320696831E-1;-9.759140015E-2
2.271845387E0;7.279062271E-2;-7.116630077E-1;-6.209893227E-1
2.290156972E0;8.707294464E-1;-2.607054710E-1;-1.039791107E-2
2.308469960E0;1.116573334E0;-2.326951027E-1;4.174785614E-1
2.326780263E0;5.452003479E-1;-6.741807461E-1;4.500727654E-1
2.345092275E0;-3.795576096E-1;-1.239707232E0;7.331681252E-1
2.363403737E0;-1.041287899E0;-2.017343521E0;3.619232178E-1
2.381715566E0;-7.650117874E-1;-2.054141045E0;6.689424515E-1
2.400023427E0;-4.877328873E-2;-1.829529285E0;1.503437996E0
2.418338490E0;2.200798988E-1;-1.740093231E0;1.217733383E0
2.436650624E0;6.836295128E-1;-1.603708744E0;1.331607819E0
2.454962331E0;3.204474449E-1;-1.948327541E0;1.145064354E0
2.473273610E0;-7.226514816E-2;-1.768804550E0;1.179542542E0
2.491585683E0;4.281234741E-2;-1.472755909E0;1.514238358E0
2.509898610E0;1.890492439E-1;-1.466475964E0;1.096215725E0
2.528208974E0;1.153904438E0;-7.489500046E-1;3.814330101E-1
2.546520741E0;1.543558598E0;2.549314499E-2;-2.962775230E-1
2.564832509E0;1.364165306E0;2.844977379E-1;-3.680109978E-1
2.583144521E0;1.008894920E0;2.152347565E-2;9.462833405E-2
2.601456288E0;4.835782051E-1;-4.564075470E-1;2.786316872E-1
2.619766103E0;1.726770401E-1;-5.431971550E-1;5.946230888E-1
2.638079274E0;-3.648495674E-1;1.242742538E-1;3.230133057E-1
2.656391103E0;-2.722821236E-1;6.144046783E-2;-3.170003891E-1
2.674702626E0;-5.960888863E-1;1.096096039E-1;-9.780535698E-1
2.693009511E0;-6.303813457E-1;-7.956123352E-2;-1.243880272E0
2.711326039E0;-5.079460144E-1;6.686210632E-2;-9.235911369E-1
2.729637685E0;-2.459583282E-1;4.058852196E-1;-1.004488468E0
2.747948231E0;2.067756653E-1;7.294034958E-2;-5.028405190E-1
2.766260976E0;-3.665246964E-1;1.173019409E-2;-6.418533325E-1
2.784573048E0;-6.267340183E-1;1.327800751E-2;-8.880038261E-1
2.802884511E0;-4.272675514E-1;1.343603134E-1;-6.407337189E-1
2.821190541E0;-3.270967007E-1;9.750747681E-2;-1.797037125E-1
2.839507497E0;-2.214317322E-1;-1.186151505E-1;-2.579097748E-1
2.857801930E0;-1.871094704E-1;-8.198881149E-2;-2.709670067E-1
2.876131337E0;3.798978329E-1;2.603449821E-1;1.057529449E-2
2.894443044E0;9.431686401E-1;2.673430443E-1;5.626511574E-1
2.912754567E0;8.372809887E-1;-5.278253555E-2;9.393544197E-1
2.931066640E0;4.450724125E-1;-1.425557137E-1;1.208725452E0
2.949379323E0;2.135765553E-1;-2.803044319E-1;8.846354485E-1
2.967689320E0;1.367785931E-1;-6.973934174E-2;7.701625824E-1
2.986001210E0;1.267302036E-1;-1.131734848E-1;-1.011247635E-1
3.004313222E0;-3.176379204E-2;-4.166746140E-2;-5.953316689E-1
3.022627797E0;1.066386700E-1;1.206765175E-1;-1.010233402E0
3.040936818E0;3.645398617E-1;3.697624207E-1;-1.100004673E0
3.059247914E0;4.992630482E-1;5.399050713E-1;-7.335209846E-1
3.077562855E0;3.166046143E-1;4.940772057E-1;2.443408966E-2
3.095868947E0;1.175818443E-1;1.650438309E-1;4.540357590E-1
3.114183400E0;-5.595018864E-1;-1.744184494E-1;2.326097488E-1
3.132495046E0;-8.416862488E-1;-3.369684219E-1;-1.643681526E-1
3.150807973E0;-9.467475414E-1;-4.578890800E-1;-2.391705513E-1
3.169118581E0;-5.907256603E-1;-3.232603073E-1;9.729719162E-2
3.187430165E0;-3.708405495E-1;-4.463667870E-1;3.964495659E-1
3.205741567E0;-6.767122746E-1;-6.104588509E-1;1.408329010E-1
3.224047535E0;-3.526294231E-1;-6.786336899E-1;5.347523689E-1
3.242355763E0;-7.438898087E-2;-4.519100189E-1;1.126874924E0
3.260665578E0;1.389193535E-2;-9.732151031E-2;9.723753929E-1
3.278988454E0;2.254834175E-1;8.419513702E-2;3.596062660E-1
3.297301015E0;4.575035572E-1;3.226470947E-1;2.246708870E-1
3.315612111E0;6.407635212E-1;4.702672958E-1;8.071894646E-1
3.333919179E0;8.966822624E-1;3.275413513E-1;1.040447235E0
3.352235463E0;8.673310280E-1;2.150373459E-1;9.674220085E-1
3.370547292E0;6.109409332E-1;1.632695198E-1;8.191933632E-1
3.388857960E0;2.903983593E-1;-4.576911926E-1;2.313709259E-1
3.407170583E0;-4.504292011E-1;-7.501459122E-1;-1.833448410E-1
3.425482167E0;-8.793318272E-1;-8.329882622E-1;-1.650195122E-1
3.443794118E0;-9.963927269E-1;-1.057579994E0;-4.542975426E-1
3.462101064E0;-5.280070305E-1;-8.190007210E-1;-1.526160240E-1
3.480417531E0;-5.908060074E-2;-3.972563744E-1;1.393985748E-2
3.498728688E0;-4.146552086E-2;-3.291921616E-1;-4.116630554E-1
3.517039113E0;-3.698060513E-1;-3.500704765E-1;-1.402127743E0
3.535350636E0;-3.627660275E-1;-2.545142174E-1;-1.881928444E0
3.553663991E0;-2.151918411E-1;-1.833434105E-1;-1.691298962E0
3.571975453E0;-5.043840408E-2;-3.165488243E-1;-1.334752083E0
3.590288747E0;1.429691315E-1;-3.663716316E-1;-1.053927422E0
3.608599110E0;6.187312603E-1;-2.560310364E-1;-8.778109550E-1
3.626912038E0;1.103219032E0;1.626729965E-2;-7.770829201E-1
3.645222402E0;9.979178905E-1;2.514405251E-1;-6.487622261E-1
3.663534779E0;7.194118500E-1;3.052186966E-1;-9.310421944E-1
3.681846120E0;5.105271339E-1;2.397727966E-1;-1.112233162E0
3.700157704E0;1.994891167E-1;5.350828171E-2;-6.414003372E-1
3.718470387E0;1.367626190E-1;-9.447479248E-2;1.688299179E-1
3.736771169E0;1.542668343E-1;-8.213090897E-2;3.184323311E-1
3.755092946E0;6.002688408E-2;-2.474880219E-1;8.359909058E-3
3.773404714E0;5.575847626E-2;-2.378644943E-1;-1.248550415E-2
3.791716176E0;-1.689724922E-1;-2.585697174E-1;2.444553375E-2
3.810024464E0;-4.451141357E-1;-3.584818840E-1;8.413267136E-2
3.828339650E0;-7.436325550E-1;-3.911557198E-1;1.849908829E-1
3.846651357E0;-8.484697342E-1;-5.423016548E-1;1.852555275E-1
3.864962880E0;-6.376085281E-1;-3.971247673E-1;1.916642189E-1
3.883274709E0;-2.218704224E-1;-2.829666138E-1;2.533693314E-1
3.901580555E0;2.253389359E-1;-1.221785545E-1;1.370325089E-1
3.919898488E0;2.522041798E-1;7.107686996E-2;-3.163814545E-2
3.938209401E0;2.410590649E-1;1.119613647E-2;-7.986974716E-2
3.956521474E0;2.566707134E-1;-6.981754303E-2;6.478548050E-2
3.974833180E0;2.286772728E-1;-2.822451591E-1;4.059653282E-1
3.993144704E0;2.059745789E-2;-3.286666870E-1;4.827556610E-1
4.011453297E0;-1.338846684E-1;-2.911372185E-1;3.509674072E-1
4.029767384E0;-2.386162281E-1;-4.017047882E-1;-9.451866150E-3
4.048080068E0;-2.118363380E-1;-2.028970718E-1;-4.647684097E-2
4.066391713E0;4.007959366E-2;3.118419647E-2;7.900810242E-2
4.084703054E0;4.244060516E-1;2.985672951E-1;7.460308075E-2
4.103013417E0;6.506230831E-1;4.796528816E-1;3.546714783E-3
4.121327138E0;6.699638367E-1;3.990392685E-1;-1.175451279E-2
4.139638661E0;7.746982574E-2;1.931400299E-1;-8.598756790E-2
4.157948659E0;-2.946536541E-1;2.760705948E-1;-7.134914398E-3
4.176261891E0;-2.348272800E-1;1.211619377E-1;-4.194307327E-1
4.194573720E0;-2.026631832E-1;2.991294861E-2;-6.394109726E-1
4.212885243E0;-2.202968597E-1;-1.803956032E-1;-3.815655708E-1
4.231196584E0;-5.385668278E-1;-4.603400230E-1;-5.381665230E-1
4.249508839E0;-4.552979469E-1;-2.062721252E-1;-5.315384865E-1
4.267819569E0;-4.002552032E-1;5.893182755E-2;-2.686896324E-1
4.286132008E0;9.781599045E-2;4.671072960E-1;1.179709435E-1
4.304443715E0;-3.515796661E-1;4.819445610E-1;1.045942307E-2
4.322755605E0;-9.773955345E-1;-1.821126938E-1;-2.988286018E-1
4.341067067E0;-1.247246504E0;-2.826914787E-1;-2.184343338E-1
4.359380117E0;-9.205899239E-1;-4.700374603E-2;3.539056778E-1
4.377689259E0;-6.397044659E-1;3.177003860E-1;4.289741516E-1
4.396002126E0;-3.119773865E-1;1.782054901E-1;1.798543930E-1
4.414314198E0;6.867718697E-2;1.630792618E-1;4.501819611E-3
4.432625661E0;3.794767857E-1;1.620450020E-1;-3.214111328E-1
4.450936940E0;4.353737831E-2;-2.831549644E-1;-5.520029068E-1
4.469249257E0;-1.219203949E0;-1.043975353E0;-2.172470093E-3
4.487561940E0;-2.109945774E0;-1.249358654E0;3.888125420E-1
4.505872792E0;-9.403119087E-1;-4.756507874E-1;1.973009109E-2
4.524183950E0;5.064926147E-1;1.679544449E-1;-2.555794716E-1
4.542491261E0;1.541488409E0;4.432134628E-1;1.137752533E-1
4.560807485E0;1.886707783E0;4.137134552E-1;3.861045837E-2
4.579119374E0;2.043042421E0;4.017930031E-1;-3.131108284E-1
4.597431081E0;2.032283545E0;4.912319183E-1;-3.621783257E-1
4.615742604E0;1.392217159E0;6.318879128E-1;-2.643303871E-1
4.634054250E0;4.056119919E-1;5.956764221E-1;-9.037842751E-1
4.652366139E0;2.538363934E-1;2.555379868E-1;-1.452564955E0
4.670671559E0;-1.783227921E-2;3.904986382E-1;-5.232138634E-1
4.688989491E0;1.357936859E-2;4.439740181E-1;-7.188451290E-1
4.707301259E0;-1.488271236E0;-1.422730446E0;-5.668544769E-2
4.725612721E0;-8.062489033E-1;-1.073381901E0;7.035226822E-1
4.743919728E0;-3.029632568E-2;1.140413284E-1;5.793824196E-1
4.762236318E0;-8.278801441E-1;-4.359893799E-1;7.212638855E-3
4.780547780E0;-1.008702755E0;-1.206393242E-1;1.010971069E-1
4.798858693E0;-2.954168320E-1;-5.404949188E-3;6.820201874E-2
4.817161855E0;4.458293915E-1;-2.161488533E-1;-2.388000488E-2
4.835482900E0;6.711423397E-1;-1.979908943E-1;6.791877747E-2
4.853794667E0;3.525764942E-1;5.302906036E-2;2.027664185E-1
4.872106435E0;2.755773067E-1;-1.133675575E-1;1.655316353E-1
4.890418080E0;-4.188709259E-1;2.550129890E-1;-7.290220261E-1
4.908729970E0;-4.839830399E-1;1.549463272E-1;-6.193985939E-1
4.927041493E0;-2.985050678E-1;2.161073685E-2;-6.886959076E-3
4.945353322E0;-5.549979210E-1;-1.240005493E-1;-3.332028389E-1
4.963664784E0;-9.727191925E-2;2.598681450E-1;-8.070108891E-1
4.981976552E0;4.882287979E-2;1.937098503E-1;-2.125239372E-1
5.000289540E0;4.396820068E-2;1.457376480E-1;2.048854828E-1
5.018602284E0;1.326680183E-1;1.038956642E-1;-2.614207268E-1
5.036912220E0;7.200813293E-2;1.133289337E-1;-9.249973297E-2
5.055223256E0;-3.148269653E-2;3.941473961E-1;7.117800713E-1
5.073534901E0;7.272653580E-1;3.733067513E-1;6.371212006E-1
5.091844044E0;2.146143913E-1;-1.158520699E0;-2.829155922E-1
5.110158193E0;6.104879379E-1;-5.355129242E-1;-5.562028885E-1
5.128471364E0;1.066961288E-1;-7.354364395E-1;-1.055660725E0
5.146781972E0;6.732783318E-1;-3.706874847E-1;-2.236351967E-1
5.165093678E0;3.353729248E-1;-2.189512253E-1;-3.773131371E-1
5.183400380E0;4.812855721E-1;-4.778909683E-1;1.479649544E-1
5.201717030E0;3.955326080E-1;-1.061524391E0;1.203250885E-2
5.220025014E0;3.355836868E-2;-5.503249168E-1;-1.411557198E-1
5.238340321E0;1.213102341E-1;-8.914661407E-2;-1.698784828E-1
5.256638051E0;-2.337365150E-1;-3.678255081E-1;-7.290315628E-2
5.274964101E0;-2.008738518E-1;-3.314471245E-1;2.848978043E-1
5.293275685E0;-1.241898537E-1;1.705908775E-1;3.289651871E-2
5.311581227E0;-5.174427032E-1;1.678843498E-1;-5.305719376E-2
5.329898610E0;-4.214749336E-1;1.284170151E-2;2.348642349E-1
5.348210378E0;-8.741617203E-2;1.718931198E-1;-1.933822632E-1
5.366522206E0;-1.237354279E-1;-1.016569138E-2;-2.393960953E-2
5.384834157E0;-2.041339874E-3;-2.116060257E-2;-7.493066788E-2
5.403145436E0;3.857946396E-2;4.299879074E-2;-1.743788719E-1
5.421457509E0;1.243214607E-1;-7.901859283E-2;-2.929143906E-1
5.439767872E0;5.716037750E-2;5.493640900E-2;8.819389343E-2
5.458080556E0;-5.957412720E-2;5.822467804E-2;-1.279587746E-1
5.476392324E0;-1.899266243E-1;-2.191228867E-1;4.223537445E-2
5.494701405E0;-9.668540955E-2;-1.480579376E-1;-3.513755798E-1
5.513015614E0;-6.238937378E-2;-1.722669601E-1;-1.317048073E-1
5.531327626E0;3.444399834E-1;5.860161781E-1;6.538820267E-2
5.549639028E0;1.392693520E-1;1.634936333E-1;-5.412340164E-2
5.567949696E0;8.821058273E-2;-9.521865845E-2;-5.989789963E-2
5.586262624E0;5.089998245E-2;1.168069839E-1;1.586675644E-2
5.604574391E0;1.176309586E-2;2.346758842E-1;-1.582121849E-1
5.622885732E0;-6.327915192E-2;3.040165901E-1;-4.196166992E-2
5.641197499E0;-1.732578278E-1;1.542992592E-1;1.237168312E-1
5.659509694E0;2.698707581E-2;-1.975655556E-1;1.514892578E-1
5.677819996E0;1.761913300E-3;-1.695137024E-1;-1.735782623E-1
5.696132436E0;3.342437744E-2;-1.961798668E-1;-3.712611198E-1
5.714444508E0;-4.260873795E-2;-2.048282623E-1;-2.479147911E-1
5.732756276E0;2.173490524E-1;-2.490744591E-1;3.836917877E-2
5.751067799E0;1.285414696E-1;-3.499093056E-1;1.166043282E-1
5.769380544E0;9.193897247E-3;-3.886294365E-1;-1.313056946E-1
5.787690235E0;-1.284547567E0;-6.542105675E-1;-5.715990067E-1
5.806002980E0;-2.063131332E-1;-2.711286545E-1;-5.194754601E-1
5.824314748E0;3.348183632E-1;2.864632607E-1;-5.370678902E-1
5.842626210E0;3.115792274E-1;2.150988579E-1;-2.347254753E-1
5.860937917E0;1.651647091E-1;2.136440277E-1;-3.557372093E-1
5.879249745E0;-2.269470692E-1;3.901829720E-1;3.833961487E-2
5.897559499E0;-2.867696285E-1;3.659839630E-1;5.672655106E-1
5.915872914E0;-1.972103119E-2;-2.764096260E-1;-2.053790092E-1
5.934184987E0;-3.667922020E-1;-9.891138077E-1;-2.373156548E-1
5.952491994E0;-5.671977997E-4;-6.191892624E-1;-1.896066666E-1
5.970808339E0;7.275674343E-1;3.251752853E-1;-1.870989799E-1
5.989119802E0;1.062750578E0;4.858951569E-1;1.497659206E0
6.007428761E0;-1.179652214E-1;1.839652061E-1;-5.559873581E-2
6.025743459E0;2.960181236E-2;2.770323753E-1;-7.645425797E-1
6.044055287E0;-4.938328266E-1;3.771276474E-1;-5.918025970E-2
6.062366445E0;-1.069638729E-1;-1.246547699E-1;-8.669691086E-1
6.080672474E0;2.941489220E-2;-1.793870926E-1;-3.347110748E-2
6.098992970E0;-1.493530273E-1;-5.504226685E-2;2.368054390E-1
6.117301930E0;-1.823859215E-1;8.755874634E-2;-1.051244736E-1
6.135613210E0;-6.715965271E-2;1.355624199E-1;-1.075553894E-1
6.153924977E0;3.125047684E-2;-4.328727722E-3;-2.295479774E-1
6.172237050E0;1.791024208E-2;6.879329681E-3;-1.527166367E-2
6.190545643E0;-1.968438625E-1;1.081295013E-1;1.993160248E-1
6.208858815E0;-5.545043945E-2;-2.081871033E-2;8.643817902E-2
6.227172048E0;6.659030914E-4;-2.702360153E-1;-9.109830856E-2
6.245483876E0;-9.096622467E-3;-1.832423210E-1;-1.099390984E-1
6.263796926E0;-1.431620121E-1;7.166433334E-2;-4.441833496E-2
6.282104176E0;-1.205065250E-1;5.217456818E-2;8.486270905E-2
6.300418935E0;1.369464397E-1;-1.724324226E-1;-9.910535812E-2
6.318730519E0;2.286012173E-1;6.348276138E-2;2.698421478E-3
6.337042226E0;-5.311417580E-2;-6.151151657E-2;-4.989910126E-2
6.355353749E0;6.739640236E-2;-1.933221817E-1;-2.173795700E-1
6.373665639E0;-1.444292068E-2;2.252626419E-1;3.980255127E-2
6.391977467E0;-2.657144070E-1;1.651659012E-1;3.766627312E-1
6.410290211E0;-1.706707478E-1;-2.993640900E-1;-4.517936707E-2
6.428600759E0;8.224511147E-2;-3.222603798E-1;-3.363227844E-1
6.446913502E0;2.064557076E-1;-1.266007423E-1;-1.615834236E-1
6.465225637E0;2.959172726E-1;-3.135719299E-1;-1.176838875E-1
6.483524465E0;5.311727524E-2;-5.606818199E-1;-2.831792831E-2
6.501836720E0;-1.913306713E-1;-1.719441414E-1;-6.162166595E-3
6.520162038E0;1.969883442E-1;8.777332306E-2;-1.624078751E-1
6.538471792E0;1.194774389E0;5.407762527E-2;1.609706879E-1
6.556782399E0;3.010361195E-1;5.387926102E-2;2.160172462E-1
6.575094106E0;-6.992373466E-1;8.461251259E-1;-2.740159035E-1
6.593401112E0;-8.818922043E-1;1.020701408E0;-4.550457001E-2
6.611717824E0;-3.645546436E-1;7.200908661E-1;1.753134727E0
6.630025563E0;3.932580948E-1;2.892308235E-1;1.334030628E0
6.648340810E0;-8.962395191E-1;-3.183798790E-1;-9.994010925E-1
6.666652821E0;-5.960388184E-1;-5.926771164E-1;-1.028909683E0
6.684964345E0;4.533476830E-1;-4.579362869E-1;-2.238135338E-1
6.703276112E0;2.271523476E-1;-3.943061829E-1;-1.071964025E0
6.721581959E0;-3.505606651E-1;-7.254586220E-1;-2.231264114E-2
6.739899648E0;-1.824717522E-1;-2.093915939E-1;1.208446980E0
6.758211415E0;3.347554207E-1;3.664484024E-1;-5.303940773E-1
6.776523183E0;7.102465630E-1;2.730927467E-1;-1.364402771E-1
6.794834401E0;-5.771875381E-2;1.663956642E-1;9.973127842E-1
6.813146718E0;-7.014594078E-1;-1.682057381E-1;-3.467464447E-2
6.831458119E0;-1.565790176E-1;-3.448772430E-2;-1.294140816E0
6.849768605E0;4.653396606E-1;-2.040152550E-1;-7.282800674E-1
6.868081105E0;-5.318717957E-1;2.214493752E-1;9.721245766E-1
6.886393239E0;-7.749333382E-1;5.317850113E-1;-3.134315014E-1
6.904704823E0;-6.760978699E-2;3.501272202E-2;-9.433727264E-1
6.923016591E0;3.067636490E-1;-2.417731285E-1;2.666363716E-1
6.941328176E0;-4.484171867E-1;-7.566356659E-1;1.501551390E0
6.959639882E0;-7.098078728E-1;-4.217114449E-1;-1.061015129E-1
6.977950429E0;1.033034325E-1;1.472749710E-1;-1.161252499E0
6.996263417E0;2.989816666E-1;-2.591152191E-1;3.667562008E-1
7.014572621E0;7.685461044E-1;-2.620363235E-1;-1.318382382E0
7.032886586E0;1.295857430E-1;2.813224792E-1;-8.413922787E-1
7.051198476E0;6.106505394E-1;-1.811723709E-1;-2.497107983E-1
7.069510243E0;5.841045380E-1;-5.818362236E-1;-1.923680305E-1
7.087819020E0;-3.484926224E-1;-8.132052422E-1;1.325085640E0
7.106133839E0;-2.315601587E0;-1.545667648E-1;-6.903276443E-1
7.124445241E0;7.477374077E-1;4.673609734E-1;-1.055953979E0
7.142757069E0;8.728351593E-1;7.781333923E-1;-3.850939274E-1
7.161068288E0;-2.297636747E0;6.822085381E-1;9.109463692E-1
7.179381520E0;-1.098859310E0;7.776689529E-1;4.725277424E-1
7.197691395E0;1.246705055E-1;9.295725822E-1;3.371250629E-1
7.216003835E0;-1.107368469E-1;5.209965706E-1;-1.531567335E0
7.234315114E0;-8.426904678E-2;8.306546211E-1;-2.214639187E0
7.252627187E0;4.085316658E-1;1.527361870E-1;-3.160922527E0
7.270938954E0;9.563636780E-1;2.991867065E-2;-1.813582301E0
7.289250722E0;5.466461182E-1;-3.447809219E-1;-3.276233673E-1
7.307563161E0;8.792495728E-1;-5.471844673E-1;8.307096958E-1
7.325874013E0;7.243123055E-1;-5.329718590E-1;1.145856857E0
7.344185780E0;-7.366385460E-1;-5.945148468E-1;1.340172768E0
7.362492604E0;-2.864588261E0;-1.124679565E0;2.090874672E0
7.380808766E0;-1.507954121E0;-6.237750053E-1;-8.706550598E-1
7.399120778E0;4.359769821E-1;-6.546878815E-1;3.259878159E-1
7.417432301E0;5.817337036E-1;-3.337049484E-1;8.401360512E-1
7.435744191E0;8.660860062E-1;2.536416054E-1;8.130736351E-1
7.454055654E0;1.013271332E0;-2.050018311E-1;8.024382591E-1
7.472367604E0;9.663281441E-1;-2.327747345E-1;-5.874419212E-1
7.490673390E0;2.055215836E-1;9.765720367E-2;-1.363280773E0
7.508988026E0;2.710313797E-1;-3.269562721E-1;9.494857788E-1
7.527302419E0;2.120394707E-1;-3.648424149E-2;-1.211661339E0
7.545614491E0;5.282859802E-1;2.211422920E-1;-1.658137798E0
7.563926015E0;1.734779358E0;-1.361227036E-2;1.053242683E0
7.582238271E0;1.984745979E0;2.437233925E-1;8.123421669E-1
7.600549306E0;1.851845264E0;3.766713142E-1;4.116888046E-1
7.618859913E0;2.046131134E0;-5.977387428E-1;2.826056004E0
7.637172841E0;1.036147118E0;-7.364983559E-1;4.126348495E0
7.655484548E0;-1.962700844E0;-4.683017731E-2;2.970959663E0
7.673795827E0;-3.488857985E0;6.009964943E-1;-1.266643047E0
7.692107839E0;-4.208850861E0;1.167501211E0;-1.756039143E0
7.710416737E0;-4.783242226E0;1.257822037E0;-1.129117012E0
7.728731435E0;-4.487567902E0;1.322854280E0;-2.258389950E0
7.747044118E0;-3.610034943E0;4.893581867E-1;-2.765248775E0
7.765354665E0;-8.851146698E-1;-3.271541595E-1;-1.930215597E0
7.783671071E0;8.444690704E-2;3.698735237E-1;-1.045696735E0
7.801978261E0;4.523134232E0;-5.003673077E0;-1.710687160E0
7.820290943E0;2.855619907E0;-7.256984711E-1;8.627500534E-1
7.838601552E0;2.366666794E0;-1.696073532E0;-1.091278315E0
7.856911183E0;1.018705368E-1;-7.272748947E-1;2.575550079E-1
7.875225087E0;-8.950777054E-1;-8.011183739E-1;8.335509300E-1
7.893536305E0;-9.199357033E-1;-7.470021248E-1;8.710098267E-1
7.911848317E0;-1.533569813E0;-4.516091347E-1;7.212901115E-1
7.930160146E0;-2.830316067E0;8.605351448E-1;4.456057549E-1
7.948472829E0;-1.886928082E0;6.751666069E-1;6.684217453E-1
7.966783620E0;2.600450993E0;8.123588562E-1;-1.837934017E0
7.985095204E0;5.691334724E0;2.613892555E-1;-1.425743103E-2
8.003402150E0;2.320844173E0;-1.955780983E-1;1.273294926E0
8.021718434E0;-3.265452385E-1;1.126724243E0;-2.097153425E0
8.040026357E0;-1.172543526E0;1.035857677E0;-1.273764849E0
8.058340809E0;2.547793388E-1;4.243407249E-1;-1.151674747E0
8.076653493E0;6.409087181E-1;-6.119551659E-1;1.893678665E0
8.094968129E0;-2.899169922E-3;-2.675657272E-1;2.984693050E-1
8.113276601E0;-2.893447876E-2;1.963666439E0;-2.859895229E-1
8.131582753E0;-3.983086109E0;-1.328787804E-1;-2.481488228E0
8.149900624E0;1.600167274E0;-1.943122387E0;1.814812183E0
8.168212148E0;9.077262878E-1;-1.063145161E0;-2.430045605E-1
8.186523610E0;5.748882294E-1;-7.970275879E-1;-8.300386667E-1
8.204835439E0;-4.663538933E-1;-6.368112564E-2;-4.813647270E-1
8.223147206E0;-6.249861717E-1;1.159653664E-1;1.252005100E-1
8.241459035E0;-2.133121729E0;1.551403046E0;-1.599466801E-1
8.259769337E0;-3.969395638E0;3.550480366E0;-1.430120468E-1
8.278082204E0;1.069468975E0;1.652818680E0;1.655805111E-1
8.296393971E0;5.779981613E-2;4.816398621E-1;-1.954053044E0
8.314705800E0;1.655612946E0;2.424316406E-1;4.739787579E-1
8.333017324E0;1.164764881E0;3.369607925E-1;-3.422951698E-2
8.351314869E0;5.225949287E-1;8.936071396E-1;-8.777924776E-1
8.369640859E0;6.989479065E-1;1.181644440E0;5.929929018E-1
8.387953847E0;-1.092290640E0;8.627395630E-1;-2.039109468E-1
8.406263845E0;2.495830059E-1;7.770900726E-1;4.720896482E-1
8.424575978E0;-1.138200760E-1;-3.757553101E-1;-4.412600994E-1
8.442887685E0;1.480548382E-1;-1.934823990E0;-4.134819508E-1
8.461199147E0;5.907840729E-1;-2.001465797E0;1.858031750E-2
8.479510671E0;1.235231400E0;-1.880619049E0;-2.931610346E-1
8.497809681E0;4.099857807E-1;-1.643495560E0;5.960071087E-2
8.516137379E0;4.722893238E-1;-1.725891113E0;-8.144736290E-3
8.534446278E0;-5.321335793E-1;-1.535099030E0;2.507134676E-1
8.552760365E0;-4.806540012E-1;-3.859806061E-1;-6.650698185E-2
8.571069569E0;-2.232370377E-1;-1.362237930E-1;-6.166163683E-1
8.589382863E0;-2.329483032E-1;1.205832005E0;1.046192646E-1
8.607691944E0;-1.546449661E-1;1.824302197E0;1.151411533E-1
8.626004323E0;-5.588462353E-1;1.996985912E0;-4.969086647E-1
8.644316396E0;-1.405383706E0;2.241009712E0;-9.244441986E-3
8.662627858E0;-1.308040857E0;3.531950474E0;-8.314366341E-1
8.680939687E0;2.519714832E-1;3.228438854E0;-3.602384329E-1
8.699249989E0;-1.140208244E-1;-7.850780487E-1;-2.713047266E-1
8.717562978E0;9.904572964E-1;-5.816483498E0;-2.197637558E-1
8.735874928E0;2.214196205E0;-4.145590782E0;3.943626881E-1
8.754186330E0;1.491795063E0;-2.357199669E0;-9.096515179E-2
8.772493398E0;7.346322536E-1;-9.597644806E-1;-3.290539980E-1
8.790809987E0;-3.436355591E-1;-8.876228333E-2;-4.649305344E-2
8.809121755E0;-4.961420298E-1;5.575275421E-2;1.850450039E-2
8.827433339E0;1.178691387E-1;-5.026397705E-1;-2.921712399E-2
8.845744741E0;4.024291039E-2;-1.720180511E-1;-1.747078896E-1
8.864056630E0;-1.286284924E-1;-7.192897797E-2;-2.778840065E-1
8.882368398E0;1.684017181E-1;-2.082996368E-1;-2.690629959E-1
8.900674061E0;-1.590877771E-1;6.023883820E-2;3.234982491E-2
8.918991689E0;9.792804718E-3;-2.421665192E-1;-2.299269438E-1
8.937300771E0;7.185827494E-1;-5.480613708E-1;9.364724159E-2
8.955615224E0;1.226555109E-1;-6.195268631E-1;-1.411496401E-1
8.973926991E0;2.293823957E-1;-5.237541199E-1;9.318053722E-2
8.992238454E0;2.688679695E-1;-4.707651138E-1;7.179963589E-2
9.010550710E0;-1.716852188E-2;-7.412014008E-1;-1.643548012E-1
9.028863209E0;2.329837084E-1;-8.836793900E-1;4.412833452E-1
9.047173818E0;7.479417324E-2;-3.995332718E-1;2.696503401E-1
9.065485341E0;-6.658936739E-1;4.805307388E-1;-3.376307487E-1
9.083794240E0;8.049787283E-1;1.214676857E0;-9.698784351E-2
9.102108815E0;1.000735998E0;5.075359344E-1;-8.925062418E-1
9.120421010E0;-9.705101252E-1;1.535301208E-1;-2.162972689E-1
9.138731862E0;-6.753541231E-1;4.770984650E-1;1.302075386E-1
9.157045095E0;-7.641379833E-1;6.734390259E-1;2.997844219E-1
9.175355580E0;5.226578712E-1;3.223199844E-1;4.028236866E-2
9.193667287E0;-3.920812607E-1;5.345869064E-1;-2.317035198E-2
9.211978749E0;-1.836034060E-1;1.455416679E0;-1.038411260E-1
9.230291982E0;7.003495693E-1;4.765148163E-1;-4.634141326E-1
9.248602589E0;5.803496838E-1;-2.763109207E-1;-5.277633667E-3
9.266915211E0;-2.537488937E-1;-3.259410858E-1;4.822491407E-1
9.285225514E0;2.540397644E-2;-5.590934753E-1;-2.336549759E-1
9.303538808E0;-2.674963474E-1;8.535051346E-1;-4.033088684E-3
9.321849110E0;-4.601373672E-1;-4.894256592E-3;-3.644189835E-1
9.340155018E0;8.407378197E-2;-4.901599884E-1;1.523554325E-1
9.358472341E0;-2.982616425E-2;-2.116203308E-2;-1.628745794E-1
9.376770497E0;-3.247036934E-1;3.215417862E-1;-2.668875456E-1
9.395095937E0;-2.556319237E-1;2.838220596E-1;-1.386191249E-1
9.413403127E0;7.766985893E-2;-2.430810928E-1;6.843972206E-2
9.431719106E0;-2.372548580E-1;-4.027805328E-1;1.728163958E-1
9.450027516E0;-1.132107973E-1;4.090852737E-1;-2.909940481E-1
9.468341542E0;5.094615221E-1;2.233910561E0;-6.193985939E-1
9.486654530E0;1.566538811E-1;5.187988281E-1;-3.509798050E-1
9.504965871E0;-5.227450132E-1;-1.550486565E0;5.804592967E-1
9.523278005E0;3.937041759E-2;-1.033991814E0;4.124666452E-1
9.541583790E0;-4.511438608E-1;1.443319321E0;-1.994627714E-1
9.559901418E0;4.525433779E-1;1.595158577E0;-6.876147985E-1
9.578212575E0;-3.461626768E-1;3.297929764E-1;1.476010680E-1
9.596524831E0;-1.059478283E0;-6.065444946E-1;1.090007424E-1
9.614836598E0;5.896708965E-1;-1.857463837E0;-1.277536154E-1
9.633147939E0;-6.870359182E-1;-8.566265106E-1;-2.482369542E-1
9.651459706E0;-6.920119524E-1;-2.915325165E-1;1.775882244E-1
9.669772816E0;-9.945146441E-1;9.713649750E-1;2.808102965E-1
9.688083241E0;-1.331414342E0;1.335922241E0;8.837717772E-2
9.706395009E0;2.023923397E-2;-3.086700439E-1;1.151410341E-1
9.724696828E0;1.738403916E0;-2.295006752E0;-3.456736803E-1
9.743007192E0;2.027287483E-1;-1.010263443E0;-1.062022448E0
9.761319081E0;-1.090130806E-1;-2.316226959E-1;-8.375771642E-1
9.779641835E0;3.512114286E-1;-7.990674973E-1;3.202009201E-2
9.797954213E0;-2.937639952E-1;-1.626450539E0;3.429585695E-1
9.816265065E0;-2.517724037E-2;-1.444234848E-1;-2.024055123E-1
9.834576833E0;-1.296288967E-1;1.577409744E0;-3.495490551E-2
9.852888661E0;4.379856586E-1;1.383201599E0;-5.483186245E-2
9.871199880E0;4.891932011E-1;7.332201004E-1;4.141414165E-2
9.889512196E0;1.507265568E-1;1.371984482E-1;1.390597820E-1
9.907822743E0;5.573689938E-2;-3.147506714E-2;1.649390459E-1
9.926135548E0;5.876469612E-2;-7.364082336E-2;1.217023134E-1
9.944446767E0;2.001239061E-1;-1.246986389E-1;3.563511372E-2
9.962758778E0;3.492417336E-1;-5.209064484E-2;2.380062342E-1
9.981064503E0;-8.099436760E-3;1.493453979E-2;-1.867566705E-1
9.999382008E0;4.419208765E-1;7.392110825E-1;-1.803935766E-1
1.001769237E1;8.704075813E-1;1.858634949E-1;-2.102453709E-1
1.003600561E1;8.297027349E-1;-3.652629852E-1;-1.444827318E-1
1.005431731E1;7.451306581E-1;-1.640510559E-1;-2.323537469E-1
1.007262920E1;4.124114513E-1;3.584384918E-2;-4.023640156E-1
1.009094329E1;3.219516277E-1;-1.317787170E-2;-3.051511049E-1
1.010925121E1;4.476391077E-1;2.350234985E-2;-2.571583986E-1
1.012756395E1;5.392317772E-1;-1.451683044E-2;-2.942099571E-1
1.014587572E1;2.764202356E-1;-1.647949219E-3;-2.812753320E-1
1.016418694E1;3.242018223E-1;-2.187061310E-1;-3.299663663E-1
1.018249444E1;3.846876621E-1;3.274774551E-1;-5.855779648E-1
1.020081084E1;5.178461075E-1;2.985954285E-1;-4.208764434E-1
1.021912261E1;5.548038483E-1;1.082544327E-1;-3.548784852E-1
1.023743413E1;7.706972361E-1;1.622695923E-1;-3.121270537E-1
1.025574602E1;8.216612339E-1;2.091159821E-1;-3.235084414E-1
1.027405785E1;8.382320404E-1;1.709413528E-1;-3.297919035E-1
1.029236937E1;8.718922138E-1;2.999992371E-1;-3.572072387E-1
1.031068206E1;8.567878008E-1;3.303270340E-1;-3.351711035E-1
1.032899260E1;7.216638327E-1;1.611375809E-1;-3.637398481E-1
1.034730468E1;6.369112730E-1;-3.705024719E-3;-3.235784769E-1
1.036561620E1;6.985855103E-1;2.623252869E-1;-4.118115902E-1
1.038392742E1;9.229221344E-1;4.375047684E-1;-5.223791599E-1
1.040223980E1;1.082921743E0;2.116870880E-1;-5.123040676E-1
1.042055120E1;1.122964621E0;-2.629756927E-2;-5.020141602E-1
1.043886425E1;1.094914317E0;-7.344436646E-2;-5.915985107E-1
1.045717425E1;1.038900256E0;-7.624626160E-2;-7.410764694E-1
1.047548632E1;8.136379719E-1;-1.343412399E-1;-8.161850572E-1
1.049379802E1;9.477010369E-1;-4.340171814E-2;-8.916261196E-1
1.051211272E1;1.256141663E0;-9.181976318E-3;-9.510992169E-1
1.053042138E1;1.365040064E0;-1.068639755E-1;-6.870954037E-1
1.054873339E1;1.227259636E0;-1.917877197E-1;-7.029554844E-1
1.056704613E1;1.151077747E0;-2.302742004E-1;-8.527156115E-1
1.058535692E1;1.150892258E0;-1.704807281E-1;-9.630692601E-1
1.060366790E1;1.257021070E0;-1.500530243E-1;-7.483395338E-1
1.062197539E1;1.368039131E0;-2.881488800E-1;-7.615910172E-1
1.064029180E1;1.612190723E0;-4.986095428E-1;-1.014703751E0
1.065860375E1;1.694362044E0;-6.743583679E-1;-1.229968071E0
1.067691564E1;2.077909946E0;-6.428031921E-1;-1.345004916E0
1.069522674E1;2.245223045E0;-9.761753082E-1;-1.233246326E0
1.071353808E1;2.068116188E0;-1.102272987E0;-8.375990391E-1
1.073185033E1;1.384080052E0;-1.095480919E0;-7.088313103E-1
1.075015569E1;8.382584453E-1;-7.419157028E-1;-3.035112619E-1
1.076847356E1;8.603099585E-1;3.111429214E-1;3.235126734E-1
1.078678545E1;6.496642232E-1;8.306398392E-1;-1.839823723E-1
1.080509691E1;-4.324997663E-1;6.069660187E-1;-8.590725064E-1
1.082340374E1;-1.506746292E0;-2.261810303E-1;-1.222067595E0
1.084172045E1;-2.096287251E0;-8.768615723E-1;-1.039944530E0
1.086001830E1;-2.115296602E0;-2.007148743E0;-5.686684251E-1
1.087834246E1;-1.287705183E0;-1.721059799E0;-2.093833089E-1
1.089663872E1;-2.973123789E-1;-1.706670761E0;2.592370510E-1
1.091496721E1;1.859740615E-1;-1.300493240E0;6.371551156E-1
1.093327898E1;-1.151004434E-1;-1.008013725E0;8.037024736E-1
1.095159044E1;-2.895026803E-1;-4.855480194E-1;6.962282062E-1
1.096990203E1;-6.094498634E-1;1.403017044E-1;6.395536661E-1
1.098821404E1;-7.018716931E-1;8.069009781E-1;5.640825033E-1
1.100652611E1;-4.595527053E-1;1.124428749E0;4.753287435E-1
1.102483770E1;-8.616563082E-1;1.771337509E0;4.737583995E-1
1.104314910E1;-8.081716299E-1;1.591621399E0;2.007046938E-1
1.106146068E1;-5.558573604E-1;1.568917274E0;1.462545395E-1
1.107977099E1;-4.585308433E-1;1.537875175E0;-1.960079670E-1
1.109808391E1;-4.795917571E-1;1.475454330E0;-3.719896078E-1
1.111639574E1;-2.582585812E-1;1.343458176E0;-2.310562134E-1
1.113470507E1;-3.320879936E-1;1.379192352E0;-2.636443377E-1
1.115301897E1;-4.063599408E-1;1.413434029E0;-3.735990524E-1
1.117133074E1;-1.756844521E-1;1.658920288E0;-5.309481621E-1
1.118964226E1;8.308321238E-2;1.961432457E0;-3.100974560E-1
1.120795550E1;-5.958196521E-2;1.980233192E0;-3.696193695E-1
1.122626909E1;-1.086533070E-3;1.614507675E0;-1.063629508E0
1.124457781E1;1.286854148E-1;9.519863129E-1;-1.689575076E0
1.126288451E1;5.864720345E-1;1.841411591E-1;-2.757246494E0
1.128120116E1;6.080272794E-1;-2.566423416E-1;-3.347366333E0
1.129951275E1;9.415643215E-1;-8.711805344E-1;-2.277990580E0
1.131782335E1;6.814306974E-1;-1.296037674E0;-9.967014790E-1
1.133613585E1;-9.102439880E-2;-1.799435616E0;-1.921919465E0
1.135444799E1;4.787121415E-1;-2.640967369E0;-4.431470871E0
1.137275976E1;2.372630596E0;-6.683759689E-1;-5.135897636E0
1.139106542E1;1.636459827E0;-7.429790497E-2;-5.326008797E0
1.140938274E1;-6.465651393E-1;-2.884862900E0;-3.463962317E0
1.142769408E1;-1.955496788E0;-6.383466721E0;2.084391117E-1
1.144600634E1;-1.857038498E0;-7.258646965E0;4.098093033E0
1.146431810E1;-8.869547248E-1;-2.866643906E0;3.233608246E0
1.148262951E1;-1.053190231E0;2.213559151E0;7.313882113E-1
1.150093847E1;-2.162939072E0;5.829879761E0;1.622803807E0
1.151925200E1;-2.875368595E0;4.053757668E0;2.717097759E0
1.153756499E1;-1.963574052E0;1.953644753E0;3.181173325E0
1.155587645E1;1.818535089E0;-1.744956970E-1;4.939023972E0
1.157418841E1;3.410050869E0;-2.036652565E0;4.883441925E0
1.159249993E1;1.593596220E0;-8.898258209E-1;1.812141180E0
1.161081176E1;-1.933233738E-1;5.528697968E-1;-2.613554001E-1
1.162912328E1;-8.813280463E-1;1.329333305E0;-1.315280795E-1
1.164743499E1;-1.253611326E0;1.709559441E0;1.958302259E-1
1.166574688E1;-8.302050829E-1;1.544601440E0;6.736412644E-1
1.168405852E1;1.601122618E-1;9.824371338E-1;1.210093498E0
1.170236980E1;7.573071122E-1;6.662101746E-1;7.866746187E-1
1.172068310E1;8.377176523E-1;1.236792564E0;-5.205169320E-3
1.173899364E1;7.167832851E-1;1.800559998E0;-6.583417058E-1
1.175730510E1;1.020065069E0;1.340245247E0;-8.621940017E-1
1.177561657E1;1.135973930E0;8.555107117E-1;-8.795344830E-1
1.179392846E1;9.558025599E-1;6.138563156E-1;-1.106577396E0
1.181224065E1;6.665126085E-1;7.126979828E-1;-1.577004433E0
1.183054930E1;8.525275588E-1;1.183613777E0;-1.477939487E0
1.184886467E1;7.219631076E-1;5.316638947E-1;-8.103204370E-1
1.186717553E1;2.556899190E-1;1.474790573E-1;-3.297222853E-1
1.188548736E1;-7.166897058E-1;1.581573486E-2;-1.290376782E0
1.190379607E1;-5.314532518E-1;-3.797988892E-1;-8.771890402E-1
1.192211028E1;2.005034447E0;-8.029708862E-1;-9.119671583E-1
1.194042211E1;3.954344034E0;-8.704252243E-1;-1.299849033E0
1.195873388E1;3.664964199E0;-1.868659973E0;-2.414839983E0
1.197704680E1;2.630898476E0;-1.843543053E0;-2.392692566E0
1.199535686E1;2.779231548E0;-2.121592522E0;-1.403111935E0
1.201366918E1;3.374830246E0;-1.839864731E0;3.226315975E-1
1.203197606E1;2.130094767E0;-1.874435425E0;3.988438845E-1
1.205029253E1;1.639882803E0;-2.072290421E0;2.032313347E-1
1.206860387E1;1.016973019E0;-1.924148560E0;5.605325699E-1
1.208691845E1;-4.013756514E-1;-1.845460892E0;5.612033606E-1
1.210522777E1;-1.897615075E0;-2.133330345E0;1.226003170E0
1.212353930E1;-3.366884708E0;-3.372591972E0;1.692232609E0
1.214185070E1;-4.158374310E0;-3.919304848E0;2.172142029E0
1.216015685E1;-4.018282890E0;-2.851913452E0;1.354186535E0
1.217847436E1;-3.371112823E0;-1.962376595E0;8.574726582E-1
1.219678637E1;-1.691835165E0;-8.335781097E-1;1.290325403E0
1.221509758E1;9.375061989E-1;6.301279068E-1;1.579679966E0
1.223340917E1;1.476008892E0;1.350998878E0;7.790206671E-1
1.225172118E1;-8.071625233E-2;1.583216667E0;4.733579159E-1
1.227002904E1;-8.788034916E-1;2.194912910E0;7.299029827E-1
1.228834295E1;-7.196517587E-1;2.468098640E0;7.727991343E-1
1.230665642E1;-6.577715874E-1;2.852682114E0;9.110225439E-1
1.232496801E1;-6.036653519E-1;3.266280651E0;9.567703009E-1
1.234327971E1;-8.312262893E-1;4.082003593E0;1.149054646E0
1.236159124E1;-1.387589335E0;3.946812153E0;1.328106999E0
1.237990313E1;-1.603105426E0;4.811930656E0;8.346391916E-1
1.239821477E1;-1.309546113E0;3.750958443E0;1.469758749E-1
1.241652660E1;-6.167228818E-1;2.803285599E0;-4.289445877E-1
1.243483782E1;2.420015335E-1;2.271412849E0;-1.209358215E0
1.245314989E1;1.189079642E0;1.346913338E0;-2.130596638E0
1.247146160E1;1.993313909E0;-3.572711945E-1;-2.757861614E0
1.248977465E1;2.305627823E0;-2.816760063E0;-2.942074776E0
1.250808757E1;2.129445553E0;-3.979084969E0;-1.207275391E0
1.252639678E1;5.663372278E-1;-3.799568176E0;-1.502427101E0
1.254470861E1;1.606527925E0;-3.410517693E0;-4.109485626E0
1.256302001E1;2.991213799E0;-1.514178276E0;-5.280045509E0
1.258132006E1;2.911864042E0;5.016241074E-1;-5.022218227E0
1.259964360E1;-1.790056229E-1;1.337184906E-1;-4.186841965E0
1.261795623E1;-2.865333080E0;-3.403001785E0;-8.835180998E-1
1.263626677E1;-4.472644329E0;-7.831103325E0;3.536510468E0
1.265457512E1;-4.915531158E0;-7.164376259E0;7.593939781E0
1.267288555E1;-1.472332358E0;-6.628379822E-1;3.167609453E0
1.269120189E1;2.135626078E-1;2.946204185E0;9.692177773E-1
1.270951366E1;-2.298974991E0;4.820246696E0;1.673623323E0
1.272782415E1;-2.238917828E0;3.085929394E0;3.067590237E0
1.274613714E1;-2.353427410E-1;2.440464497E0;4.341483116E0
1.276444872E1;2.902867794E0;-7.101182938E-1;5.933023930E0
1.278276043E1;2.274573326E0;-1.621537209E0;3.794558764E0
1.280106878E1;-2.016452551E-1;2.548446655E-1;-1.027905941E-1
1.281937011E1;-1.667671204E0;1.573405266E0;-2.551560998E-1
1.283769457E1;-1.897206306E0;2.132025242E0;3.412745893E-1
1.285600731E1;-1.593464494E0;2.231120110E0;2.518612444E-1
1.287431859E1;-7.790999413E-1;1.288888931E0;3.362874091E-1
1.289263054E1;4.839943647E-1;2.221717834E-1;2.516406178E-1
1.291094231E1;7.675912380E-1;4.145784378E-1;-6.694554687E-1
1.292925292E1;3.283004761E-1;1.281364441E0;-1.585388422E0
1.294756560E1;3.508257866E-1;1.671149254E0;-1.971882701E0
1.296586400E1;9.969707727E-1;1.456097603E0;-1.610863209E0
1.298417827E1;1.405677199E0;1.877683640E0;-5.753210783E-1
1.300249004E1;1.470636129E0;1.856915474E0;5.693840981E-2
1.302080047E1;1.203148127E0;9.535627365E-1;-8.675460815E-1
1.303912420E1;6.523194313E-1;1.219339371E-1;-1.645867348E0
1.305743572E1;-4.639959335E-1;-6.322317123E-1;-2.016715765E0
1.307574517E1;5.034651756E-1;-9.311609268E-1;-1.683263779E0
1.309405901E1;1.927349329E0;-1.068371773E0;-1.659561157E0
1.311237102E1;1.995245457E0;-1.604194641E0;-2.409831047E0
1.313068401E1;9.909076691E-1;-1.924030304E0;-2.374051094E0
1.314899462E1;1.184515834E0;-1.999414444E0;-1.465893745E0
1.316730590E1;2.543355227E0;-2.206436157E0;-4.179770947E-1
1.318561785E1;3.014281988E0;-1.666193008E0;4.139559269E-1
1.320392968E1;3.077675581E0;-1.854149818E0;5.660144091E-1
1.322224114E1;1.015715122E0;-2.509544373E0;5.314220190E-1
1.324055272E1;-1.002035260E0;-3.198826790E0;6.020050049E-1
1.325886590E1;-2.534835100E0;-2.845750809E0;9.118146896E-1
1.327717931E1;-2.811259747E0;-3.725628853E0;1.923187017E0
1.329548790E1;-2.884184837E0;-4.295406342E0;2.790684938E0
1.331379461E1;-3.019029856E0;-4.039692879E0;1.974071860E0
1.333211132E1;-2.468022346E0;-3.519735336E0;1.098592162E0
1.335042101E1;-1.759635448E0;-2.088711739E0;1.222112298E0
1.336873491E1;-8.231306076E-2;-3.001737595E-1;1.505390882E0
1.338704754E1;6.801086664E-1;1.603759766E0;9.240286350E-1
1.340535839E1;-2.803128958E-1;2.327073097E0;9.419772029E-1
1.342367113E1;-1.825271845E-1;3.283599854E0;1.326225519E0
1.344197680E1;-8.944416046E-2;4.202983856E0;1.616619468E0
1.346029339E1;-1.536486149E-1;4.921948433E0;1.621504188E0
1.347860497E1;-1.740052700E-1;4.682549477E0;1.463351250E0
1.349691051E1;-3.045523167E-1;4.627324581E0;1.153051138E0
1.351522851E1;-8.414876461E-1;4.987166405E0;8.136425018E-1
1.353353978E1;-8.634362221E-1;5.157182693E0;4.845076799E-1
1.355185174E1;-7.009931803E-1;4.299133301E0;-1.593978405E-1
1.357015770E1;-9.615027905E-2;2.830995083E0;-1.765633821E0
1.358847509E1;6.237182617E-1;1.254149437E0;-3.418820858E0
1.360678655E1;1.695744872E0;-3.204727173E-1;-4.218488693E0
1.362509862E1;2.174596310E0;-2.594641685E0;-3.375047684E0
1.364341015E1;1.025248885E0;-4.785386086E0;-9.088692665E-1
1.366172210E1;-1.537817359E0;-5.999833107E0;-2.631340027E0
1.368002978E1;-6.364867687E-1;-4.344939232E0;-4.600273609E0
1.369834404E1;4.511454105E-1;-3.623037338E-1;-4.116212845E0
1.371665716E1;-1.517603397E-1;-9.741878510E-2;-4.479925632E0
1.373496868E1;-1.401139498E0;-5.219944000E0;-2.746399164E0
1.375327996E1;-2.657704353E0;-9.046756744E0;4.326459885E0
1.377159221E1;-2.595474720E0;-4.854074478E0;7.565944672E0
1.378990404E1;6.321760416E-1;1.749513149E0;3.002735138E0
1.380821557E1;4.790107012E-1;4.462229729E0;2.530634880E0
1.382652703E1;-5.681357384E-1;3.116284847E0;3.485957623E0
1.384483916E1;-6.540287733E-1;1.227293968E0;3.998239756E0
1.386315062E1;1.305649400E0;7.021379471E-1;4.006055832E0
1.388146239E1;2.653397083E0;-7.801055908E-2;4.919488907E0
1.389977507E1;1.409808040E0;-7.953252792E-1;2.962732792E0
1.391808568E1;-4.649117589E-1;-9.831342697E-1;2.827278376E-1
1.393639733E1;-1.744476438E0;3.865957260E-1;4.165482521E-1
1.395470916E1;-2.461413622E0;1.906412125E0;3.802713156E-1
1.397302044E1;-1.678052664E0;2.711283684E0;3.354699016E-1
1.399133269E1;-9.816199541E-1;1.949306488E0;3.313395083E-1
1.400964714E1;1.648772955E-1;6.189460754E-1;4.792309403E-1
1.402795720E1;6.323384047E-1;1.043411255E0;-1.150741875E-1
1.404626720E1;-5.242824554E-3;3.133955479E0;-4.651775956E-1
1.406457934E1;-7.825756073E-2;3.207208633E0;-5.527852178E-1
1.408288933E1;4.705346823E-1;1.932697296E0;-6.510515809E-1
1.410120281E1;1.276729584E0;1.592416763E0;-1.160791636E0
1.411951433E1;1.727262974E0;9.847517014E-1;-6.986985207E-1
1.413781517E1;6.466605663E-1;-2.316398621E-1;-1.485892534E0
1.415613793E1;-7.357155085E-1;-3.912343979E-1;-8.848837018E-1
1.417444964E1;-1.103917122E0;-5.804061890E-3;-6.450891495E-1
1.419276098E1;1.104223013E0;-1.890735626E-1;-1.207481623E0
1.421106688E1;2.879003048E0;-1.186038971E0;-2.192931414E0
1.422938500E1;2.371326923E0;-2.438136101E0;-3.240271330E0
1.424769530E1;1.720939875E0;-2.641012192E0;-2.145990610E0
1.426600799E1;3.696127892E0;-2.631115913E0;-5.520880222E-2
1.428431969E1;4.141277790E0;-2.403332710E0;9.866657257E-1
1.430263152E1;3.845368385E0;-2.504434586E0;1.625790715E0
1.432094335E1;2.001060486E0;-2.400033951E0;9.054496288E-1
1.433925329E1;-5.654084682E-2;-2.215468407E0;1.793831587E-1
1.435756670E1;-2.145420790E0;-2.292592049E0;-5.974501371E-1
1.437587835E1;-3.074962616E0;-3.220182419E0;9.529163241E-1
1.439418987E1;-3.213449478E0;-4.895212173E0;1.840662241E0
1.441250139E1;-3.584908485E0;-4.642697334E0;2.273241997E0
1.443081646E1;-2.872086763E0;-3.482456207E0;1.754051805E0
1.444912511E1;-1.480866432E0;-1.927321434E0;1.643470287E0
1.446743792E1;8.200217485E-1;-4.249162674E-1;1.447023034E0
1.448574798E1;1.840281487E0;1.035173416E0;6.208839417E-1
1.450406060E1;4.961075783E-1;1.591173172E0;5.063642859E-1
1.452237188E1;-4.834675789E-2;2.722538948E0;1.046259642E0
1.454068468E1;-6.043787003E-1;3.846021652E0;1.360674381E0
1.455899499E1;-6.584054232E-1;4.791215420E0;1.843534589E0
1.457729607E1;-6.496371627E-1;4.879629135E0;1.990997553E0
1.459561858E1;-7.101309299E-1;4.424888134E0;1.805684805E0
1.461393065E1;-1.527795911E0;4.468873501E0;1.549214840E0
1.463224187E1;-2.052020550E0;5.452296257E0;7.322815657E-1
1.465055370E1;-1.357322097E0;5.021172047E0;1.303778887E-1
1.466886663E1;-4.218566418E-1;3.856297493E0;-7.131829262E-1
1.468717724E1;5.322687626E-1;2.434206009E0;-2.301849365E0
1.470548852E1;1.533458114E0;4.537792206E-1;-3.773169041E0
1.472379583E1;2.863302231E0;-2.005748749E0;-4.030929565E0
1.474211229E1;3.585496426E0;-5.573731422E0;-1.927181363E0
1.476042382E1;6.013382673E-1;-6.580512047E0;-1.432469845E0
1.477873406E1;4.960936308E-1;-5.790364265E0;-4.455179691E0
1.479704735E1;2.086019039E0;-1.800448418E0;-5.517360687E0
1.481535900E1;2.230047703E0;3.733940125E-1;-4.013673782E0
1.483367064E1;-4.923924208E-1;-1.649218559E0;-2.505708218E0
1.485197637E1;-3.292373180E0;-5.647060394E0;2.206686020E0
1.487029418E1;-5.647013664E0;-7.464116096E0;8.554956436E0
1.488860564E1;-3.532191992E0;-2.327817917E0;3.705663681E0
1.490691832E1;-1.040560126E0;1.743597984E0;1.092027307E0
1.492522893E1;-1.918699265E0;3.629175663E0;1.071086407E0
1.494354394E1;-1.479969859E0;2.654014111E0;2.837886333E0
1.496185247E1;-2.478692532E-1;2.470861435E0;5.504119396E0
1.498015819E1;2.569345951E0;5.684747696E-1;5.951344967E0
1.499847307E1;3.104050636E0;-1.172323227E0;4.294557095E0
1.501678051E1;7.508118153E-1;-1.374464035E0;9.016990662E-3
1.503509960E1;-1.247894526E0;5.664949417E-1;-5.602490902E-1
1.505341112E1;-2.258601665E0;2.440561295E0;8.097646236E-1
1.507171972E1;-2.506103992E0;3.467066765E0;7.984977365E-1
1.509003075E1;-1.961854696E0;2.597180367E0;1.157248020E-2
1.510834752E1;-2.544666529E-1;4.699668884E-1;2.717988491E-1
1.512665795E1;1.424920321E0;-4.447002411E-1;-3.431563824E-2
1.514496947E1;6.568530798E-1;1.668910027E0;-8.996070027E-1
1.516328118E1;-6.886146069E-1;3.368011951E0;-6.855586767E-1
1.518159325E1;-5.070436001E-2;2.659995079E0;-7.067735791E-1
1.519990484E1;1.006780148E0;1.362295151E0;-1.458211660E0
1.521821599E1;1.708008170E0;5.688972473E-1;-1.419683337E0
1.523652800E1;1.614422083E0;8.953380585E-2;-1.098936915E0
1.525483983E1;1.230544567E0;1.230220795E-1;-1.583637238E0
1.527315124E1;-1.797972322E-1;5.515098572E-2;-1.581837296E0
1.529146306E1;4.890346527E-1;-3.952093124E-1;-1.970554590E0
1.530977605E1;3.589256763E0;-8.492879868E-1;-1.945001006E0
1.532808666E1;4.906632900E0;-1.924363136E0;-2.359713078E0
1.534639824E1;3.020517826E0;-1.958884239E0;-2.326835632E0
1.536470995E1;2.561714888E0;-1.932959557E0;-5.468819141E-1
1.538302202E1;3.240897179E0;-2.318701744E0;8.160345554E-1
1.540133348E1;2.231237888E0;-2.794384003E0;1.620853662E0
1.541964379E1;7.238232493E-1;-3.202622414E0;1.024684191E0
1.543795647E1;-1.357154965E0;-2.475666046E0;3.306354284E-1
1.545626848E1;-2.475173712E0;-2.091680527E0;-8.954121470E-1
1.547458001E1;-2.078860283E0;-3.436701775E0;3.297876120E-1
1.549288738E1;-2.607378006E0;-5.544957161E0;1.911715269E0
1.551120324E1;-4.279981136E0;-5.624773979E0;1.619767666E0
1.552951537E1;-4.819457531E0;-4.455688477E0;6.966164708E-1
1.554782604E1;-3.518523216E0;-2.597543716E0;1.417312980E0
1.556613866E1;-4.070478678E-1;-7.212953568E-1;2.037244081E0
1.558445025E1;1.881955266E0;7.799301147E-1;1.061839104E0
1.560276220E1;7.187772989E-1;1.641823769E0;1.055399776E0
1.562106810E1;-3.112963438E-1;2.842535973E0;1.028477192E0
1.563938549E1;-1.094603181E0;3.992871284E0;1.296164870E0
1.565769579E1;-1.225993633E0;4.975592136E0;1.427780986E0
1.567600902E1;-7.984144688E-1;5.104999065E0;1.569702625E0
1.569432055E1;-5.031359196E-1;4.342330456E0;1.520802498E0
1.571263225E1;-6.874513626E-1;5.109064102E0;1.144257545E0
1.573094384E1;-8.519895673E-1;6.522188663E0;3.495677710E-1
1.574925676E1;-9.998944402E-1;5.400704384E0;-5.554518700E-1
1.576756762E1;-7.029123306E-1;3.915843964E0;-2.192722321E0
1.578587914E1;3.146061897E-1;2.631142616E0;-3.585307598E0
1.580419060E1;1.181589484E0;3.517274857E-1;-4.009876728E0
1.582250237E1;2.462404728E0;-3.253773689E0;-1.978001952E0
1.584081432E1;1.927915692E0;-7.398014069E0;-9.680790901E-1
1.585912597E1;-1.759074926E-1;-6.926661491E0;-3.131657124E0
1.587743840E1;3.090711832E-1;-2.789308548E0;-4.409868240E0
1.589574926E1;1.644845009E-1;2.749983311E0;-5.272570133E0
1.591406072E1;2.686439753E-1;2.101231575E0;-4.865124702E0
1.593237267E1;-9.620001316E-1;-3.415013313E0;-2.565505743E0
1.595068511E1;-3.951532841E0;-8.117661476E0;3.801130533E0
1.596899627E1;-5.877857208E0;-9.868603706E0;8.066116333E0
1.598730779E1;-1.469022751E0;-2.313946724E0;3.079075813E0
1.600561968E1;1.836122990E0;2.496947289E0;2.142278194E0
1.602393090E1;1.648380160E-1;4.124458313E0;3.247031212E0
1.604224291E1;4.780343175E-1;2.857243538E0;4.438082695E0
1.606054863E1;1.054323912E0;1.725665569E0;4.155452251E0
1.607886907E1;2.205686569E0;-1.327896118E-1;4.247679234E0
1.609717101E1;1.367053747E0;-1.040124893E0;4.421556473E0
1.611548974E1;-5.065793395E-1;-9.342861176E-1;1.703185439E0
1.613379656E1;-1.801214814E0;3.745565414E-1;2.990420461E-1
1.615211327E1;-2.627946377E0;2.042107582E0;4.061630368E-1
1.617042461E1;-2.368942261E0;3.642937660E0;1.733163893E-1
1.618873540E1;-1.261197567E0;2.963513851E0;8.735567331E-2
1.620704552E1;1.307014465E0;1.804361343E-1;5.347794294E-1
1.622534868E1;1.151033401E0;4.707050323E-2;-6.511632800E-1
1.624368065E1;-3.854000568E-1;2.286309242E0;-8.083354235E-1
1.626197179E1;-3.456912041E-1;3.249323845E0;-6.942508817E-1
1.628029900E1;6.787076592E-1;2.295516014E0;-2.742484808E-1
1.629860668E1;1.237997055E0;1.304849625E0;-4.321958125E-1
1.631691881E1;1.605440140E0;9.951028824E-1;-1.495456934E0
1.633522991E1;1.466999054E0;5.544404984E-1;-1.126642466E0
1.635354174E1;5.775085688E-1;2.489862442E-1;-1.759468555E0
1.637185350E1;9.340545535E-2;1.696338654E-1;-1.733390808E0
1.639016613E1;1.642009139E0;-6.410808563E-1;-1.975329518E0
1.640847674E1;3.970316410E0;-1.544680595E0;-2.404977798E0
1.642678850E1;3.802939415E0;-2.668967247E0;-3.377370119E0
1.644510033E1;1.631040215E0;-2.460399628E0;-3.141075850E0
1.646341155E1;2.784316301E0;-2.278663635E0;-1.185723782E0
1.648172387E1;3.992198467E0;-2.047407150E0;6.614857912E-1
1.650003203E1;3.371422529E0;-2.423817635E0;1.332491040E0
1.651834838E1;2.509524822E0;-2.548374176E0;9.168031216E-1
1.653665764E1;4.747533202E-1;-2.685877800E0;-1.306771040E-1
1.655497045E1;-1.323302507E0;-2.580821037E0;-2.386841774E-1
1.657328246E1;-2.607073069E0;-4.140897751E0;2.091735363E0
1.659159392E1;-4.194200039E0;-5.932810783E0;1.749635577E0
1.660990545E1;-5.498695374E0;-5.671373367E0;2.083549976E0
1.662821728E1;-4.771764755E0;-4.062336922E0;1.437423468E0
1.664652904E1;-2.478855133E0;-1.755606651E0;1.406625628E0
1.666484087E1;7.223111391E-1;6.196403503E-2;1.158493280E0
1.668315203E1;1.946822762E0;8.404331207E-1;6.165340543E-1
1.670145824E1;1.038703680E0;1.693505287E0;1.298291445E0
1.671977593E1;2.020417452E-1;3.272748947E0;1.688822031E0
1.673808733E1;-6.701899767E-1;4.820038795E0;2.093865871E0
1.675639892E1;-1.032095909E0;6.128385067E0;2.045474052E0
1.677470788E1;-8.835871816E-1;6.233467579E0;1.719328165E0
1.679302251E1;-1.037047148E0;5.488367081E0;1.319099426E0
1.681133446E1;-1.600677729E0;5.293811798E0;7.729530931E-1
1.682964458E1;-1.842598319E0;5.485479355E0;4.742031097E-1
1.684795769E1;-1.552127719E0;4.462114334E0;-4.758663177E-1
1.686626928E1;-2.332893610E-1;3.054910660E0;-2.681385279E0
1.688458104E1;1.450880647E0;1.391444206E0;-4.506334782E0
1.690288762E1;2.931354046E0;-6.100616455E-1;-4.377676487E0
1.692120482E1;4.165653229E0;-4.175741196E0;-2.559226990E0
1.693951610E1;2.078903437E0;-7.279004097E0;-8.443396091E-1
1.695782695E1;-1.854025126E-1;-6.451802254E0;-3.483242512E0
1.697613933E1;9.948955774E-1;-2.861652374E0;-5.703654766E0
1.699444829E1;2.366038799E0;1.761464119E0;-4.994559288E0
1.701276378E1;3.227413893E-1;-7.715110779E-1;-3.688540936E0
1.703107464E1;-3.997108459E0;-7.519617081E0;1.726365328E0
1.704938622E1;-9.300213814E0;-1.181479073E1;1.119512653E1
1.706769530E1;-4.116429329E0;-3.234879494E0;4.431796074E0
1.708600969E1;-2.632403374E-1;2.199953079E0;1.324890733E0
1.710432158E1;-1.462090969E0;4.348054886E0;2.443197250E0
1.712263292E1;-1.148417950E0;2.945541859E0;3.704102039E0
1.714094481E1;-2.625720501E-1;2.508747578E0;5.266962051E0
1.715925750E1;2.269457817E0;1.164054871E-2;4.767544270E0
1.717756804E1;4.051634312E0;-1.995943069E0;3.803621292E0
1.719587957E1;1.397501826E0;-1.987052917E0;5.454959869E-1
1.721419188E1;-1.705018282E0;6.531915665E-1;-4.002988338E-3
1.723250335E1;-3.340625763E0;3.094999313E0;5.506570935E-1
1.725081505E1;-3.399045944E0;4.362860680E0;-1.811833382E-1
1.726912645E1;-2.382956505E0;3.393397331E0;-7.255033851E-1
1.728743993E1;1.048418283E-1;7.528305054E-3;1.173339039E-1
1.730575054E1;1.318924069E0;-4.077510834E-1;-3.182654381E-1
1.732406194E1;1.612097025E-1;2.326350689E0;-1.219498634E0
1.734236858E1;-1.737158298E-1;3.502601624E0;-1.006936431E0
1.736068535E1;7.210910320E-1;2.647153378E0;-1.052098751E0
1.737899700E1;2.214796543E0;1.456101418E0;-8.003666401E-1
1.739730858E1;2.286064386E0;1.054376602E0;-1.283677936E0
1.741562017E1;1.466492891E0;-2.921962738E-2;-1.385300159E0
1.743393187E1;1.767766476E-1;-1.910591125E-2;-1.338230371E0
1.745224389E1;-8.730914593E-1;-3.351078033E-1;-2.430256367E0
1.747055022E1;1.722193956E0;-6.312532425E-1;-2.467961311E0
1.748886693E1;4.159173489E0;-8.604545593E-1;-2.838994980E0
1.750717894E1;3.175848007E0;-1.428277969E0;-2.723832130E0
1.752549053E1;2.209308147E0;-1.930741310E0;-1.129212022E0
1.754380028E1;2.865398884E0;-2.570776939E0;6.629546881E-1
1.756211376E1;3.051354885E0;-3.029530525E0;1.733435035E0
1.758042577E1;2.822587490E0;-2.996931076E0;1.535790443E0
1.759873638E1;4.110664129E-1;-3.495514870E0;2.166593075E-1
1.761704662E1;-2.040745735E0;-3.193947792E0;-8.401072025E-1
1.763536022E1;-2.964676857E0;-4.472584724E0;1.208649158E0
1.765367260E1;-3.936550140E0;-6.786789894E0;1.829292536E0
1.767198424E1;-5.043929100E0;-6.486660957E0;1.976880789E0
1.769029613E1;-4.210738659E0;-4.564813614E0;1.426254869E0
1.770860735E1;-2.148832321E0;-2.299788475E0;1.137951732E0
1.772692034E1;6.302418709E-1;-4.991025925E-1;1.053606629E0
1.774523119E1;1.831062913E0;7.128667831E-1;4.857317209E-1
1.776354516E1;6.111150980E-1;1.897554874E0;1.225074410E0
1.778185424E1;-1.757160425E-1;3.760764122E0;1.615562797E0
1.780016747E1;-6.488375664E-1;5.324449062E0;2.019922256E0
1.781847777E1;-5.350706577E-1;6.438556194E0;2.313721180E0
1.783678954E1;-7.339022160E-1;6.223228455E0;2.183677673E0
1.785510094E1;-6.439604163E-1;5.544850349E0;1.209566951E0
1.787341283E1;-1.224128604E0;5.165644169E0;4.232130051E-1
1.789172454E1;-1.238295913E0;5.532190323E0;9.722816944E-2
1.791003289E1;-1.140810728E0;4.637392044E0;-2.939208746E-1
1.792834905E1;-4.646695852E-1;3.291470051E0;-1.973002434E0
1.794665966E1;6.622079611E-1;1.786508083E0;-4.008331776E0
1.796497142E1;2.099575043E0;1.133012772E-1;-3.832086086E0
1.798327831E1;3.248087168E0;-2.898732185E0;-2.431904316E0
1.800159759E1;1.722583652E0;-6.904148102E0;-1.077332854E0
1.801990642E1;-1.052680254E0;-7.612430573E0;-4.242724419E0
1.803821825E1;5.813407898E-1;-4.355041504E0;-5.024529934E0
1.805653002E1;-8.416879177E-2;2.005033970E0;-4.147305012E0
1.807484441E1;-1.359185934E0;1.035881042E-1;-3.410791159E0
1.809315355E1;-3.740412712E0;-7.321857452E0;3.289959431E-1
1.811145922E1;-6.601894379E0;-1.096814919E1;1.079817104E1
1.812977685E1;-2.890668869E0;-3.747742653E0;3.260319948E0
1.814808837E1;1.220003128E0;2.487977982E0;1.900133491E0
1.816640032E1;-9.529863000E-1;4.167378426E0;3.967991829E0
1.818471184E1;-5.885451436E-1;2.195823193E0;4.212291718E0
1.820302361E1;5.732349157E-1;8.179244995E-1;4.216595650E0
1.822133489E1;2.491098881E0;-5.145301819E-1;3.930043459E0
1.823964605E1;2.479841232E0;-9.084873199E-1;4.593366623E0
1.825795873E1;3.682746887E-1;-1.024005890E0;2.385208130E0
1.827627050E1;-1.974883556E0;2.020072937E-2;9.331056476E-1
1.829457781E1;-3.029790401E0;1.974017620E0;5.498331785E-1
1.831289361E1;-3.040435314E0;3.444415092E0;2.288101315E-1
1.833120556E1;-2.427733421E0;3.305629730E0;-2.044561207E-1
1.834951732E1;-3.441122174E-1;6.766881943E-1;1.633728743E-1
1.836782775E1;8.878341913E-1;-2.158184052E-1;-1.342558563E-1
1.838614092E1;3.959951401E-1;1.444006920E0;-6.342662573E-1
1.840445232E1;-3.302435279E-1;3.414540291E0;-7.094165683E-1
1.842276415E1;1.423506737E-1;3.104804039E0;-7.314594984E-1
1.844107561E1;1.282918453E0;1.559992790E0;-7.632737160E-1
1.845938775E1;2.208683014E0;9.117460251E-1;-7.090668082E-1
1.847769835E1;1.531722546E0;8.707199097E-1;-1.197013855E0
1.849601116E1;2.673616409E-1;4.760446548E-1;-1.844174027E0
1.851432213E1;-6.432104111E-1;1.225643158E-1;-1.987633944E0
1.853263421E1;9.531058073E-1;-5.232124329E-1;-1.987960100E0
1.855094597E1;3.496233225E0;-1.939735413E-1;-2.030438185E0
1.856925920E1;3.857266188E0;-8.896923065E-1;-2.984077692E0
1.858756945E1;2.157990694E0;-1.725221634E0;-2.779611826E0
1.860587652E1;1.440531015E0;-1.929636955E0;-1.185465693E0
1.862419219E1;1.779626369E0;-2.612895966E0;1.469589472E-1
1.864250463E1;3.587496758E0;-2.827124596E0;1.238484502E0
1.866081609E1;3.386693954E0;-2.396120071E0;2.457138300E-1
1.867912810E1;2.448072195E0;-2.469215393E0;4.960428476E-1
1.869743181E1;-6.992964149E-1;-3.687001228E0;1.801024675E-1
1.871575121E1;-3.589596272E0;-5.462717056E0;2.573541641E0
1.873406292E1;-4.999268532E0;-6.309686661E0;2.363713264E0
1.875237005E1;-5.217538834E0;-5.098021507E0;2.203758717E0
1.877068651E1;-4.114889622E0;-3.771295547E0;1.300659299E0
1.878899846E1;-2.407057524E0;-2.368161201E0;1.146609545E0
1.880730980E1;4.841256142E-2;-1.540603638E-1;9.258576632E-1
1.882562182E1;1.028283834E0;1.458806038E0;6.198748946E-1
1.884393358E1;6.038188934E-3;2.245702744E0;9.521756172E-1
1.886224535E1;-2.500199080E-1;3.596638203E0;1.623258114E0
1.888055077E1;-3.613775969E-1;4.436655521E0;1.762087345E0
1.889886852E1;-5.006548166E-1;5.452270031E0;1.736694336E0
1.891718041E1;-4.737824202E-1;5.909979343E0;1.516982198E0
1.893548894E1;-6.303367615E-1;5.342038155E0;1.112019897E0
1.895380346E1;-8.953157663E-1;5.147222042E0;9.089615345E-1
1.897211547E1;-1.205664635E0;5.050658703E0;5.083111525E-1
1.899042406E1;-1.003900647E0;3.901978493E0;-6.849551201E-1
1.900873784E1;-2.713029385E-1;2.541438103E0;-2.220811844E0
1.902705022E1;6.785751581E-1;9.797945023E-1;-3.327491045E0
1.904536229E1;1.732263803E0;-7.529964447E-1;-4.174441338E0
1.906367321E1;3.272444487E0;-3.949728966E0;-3.362606525E0
1.908198583E1;1.591355801E0;-7.238434792E0;-1.325606585E0
1.910029729E1;-1.693986654E-1;-6.210899353E0;-3.080685139E0
1.911860912E1;1.292021036E0;-2.173090935E0;-5.122004986E0
1.913691320E1;2.579129457E0;2.416536808E0;-4.825990677E0
1.915523235E1;1.227245331E0;1.325757980E0;-3.582846403E0
1.917354412E1;-2.458024263E0;-4.629986763E0;2.788426876E-1
1.919185589E1;-7.922517300E0;-1.042695427E1;9.373020172E0
1.921016912E1;-5.264874935E0;-5.522481918E0;5.962969780E0
1.922846898E1;1.011983156E-1;8.822889328E-1;1.040826440E0
1.924678118E1;5.796504021E-1;3.961700916E0;1.599724650E0
1.926509240E1;-1.036334038E-1;2.249215126E0;3.221940041E0
1.928340362E1;-9.184898138E-1;1.381731033E0;5.652480125E0
1.930171563E1;5.707049370E-1;-7.895278931E-2;5.432139397E0
1.932002825E1;1.782058835E0;-1.070790291E0;3.520284176E0
1.933833873E1;9.394065142E-1;-1.326964378E0;7.945405841E-1
1.935665130E1;-1.091956854E0;-2.867631912E-1;-7.302016020E-2
1.937496190E1;-2.551029682E0;2.033384323E0;6.954108477E-1
1.939327373E1;-2.889445782E0;3.809165001E0;2.490866780E-1
1.941158580E1;-1.935240507E0;3.405007839E0;-5.906814337E-1
1.942989898E1;-4.940421581E-1;1.381134033E0;-2.694551647E-2
1.944820977E1;6.330575943E-1;1.108800888E0;-1.527774632E-1
1.946651983E1;2.844045162E-1;2.321805954E0;-4.397078753E-1
1.948483257E1;-1.508437991E-1;2.463662624E0;-1.278310061E0
1.950314434E1;6.922711730E-1;1.924273968E0;-1.870531201E0
1.952145592E1;1.555257559E0;1.158218384E0;-1.374259591E0
1.953976867E1;2.070326328E0;6.246232986E-1;-7.447276115E-1
1.955807952E1;1.029605746E0;8.684425354E-1;-1.645011663E0
1.957640203E1;2.116728425E-1;3.826179504E-1;-1.542787313E0
1.959471355E1;1.224478364E0;-3.709707260E-1;-2.079466820E0
1.961302538E1;3.732377768E0;-2.306499481E-1;-2.044943333E0
1.963133709E1;4.859935760E0;-1.364285469E0;-2.652318478E0
1.964964769E1;3.956177950E0;-2.407094955E0;-2.482004166E0
1.966796062E1;3.106281757E0;-2.586047173E0;-6.304394007E-1
1.968627214E1;2.444840431E0;-3.126046181E0;8.968291283E-1
1.970458397E1;1.579228401E0;-3.266922951E0;9.044699669E-1
1.972289574E1;9.111728072E-1;-3.277072906E0;3.196567297E-1
1.974120775E1;-1.056622624E0;-2.825370789E0;-1.202900648E0
1.975952025E1;-2.420428276E0;-2.881153107E0;2.102178335E-1
1.977781817E1;-2.804297447E0;-5.501453400E0;1.465031743E0
1.979614580E1;-3.894202709E0;-6.802333832E0;1.910836935E0
1.981445397E1;-4.242019176E0;-5.054433823E0;1.588008165E0
1.983276671E1;-3.684012413E0;-2.878620148E0;1.267044306E0
1.985107787E1;-1.407261252E0;-7.761011124E-1;1.258483887E0
1.986938964E1;9.552991390E-1;4.645576477E-1;8.436259627E-1
1.988770043E1;1.317895651E0;1.099889755E0;7.968612909E-1
1.990601287E1;7.235050201E-3;2.541350365E0;9.044784307E-1
1.992432470E1;-7.735092640E-1;4.310709000E0;1.275343537E0
1.994263652E1;-1.175029397E0;5.899868011E0;1.795094609E0
1.996094829E1;-8.730317354E-1;6.298468590E0;1.960672855E0
1.997926092E1;-8.265449405E-1;5.463213921E0;2.061896801E0
1.999757177E1;-9.556134343E-1;4.949710846E0;1.118546367E0
2.001588341E1;-1.483715415E0;5.469202042E0;4.814488888E-1
2.003419500E1;-1.727197170E0;5.402246475E0;1.023313999E-1
2.005250652E1;-1.627390862E0;3.769362926E0;-6.841378212E-1
2.007081853E1;-8.676148057E-1;1.874679565E0;-2.403610706E0
2.008913006E1;4.089683294E-1;-3.057899475E-1;-4.244795799E0
2.010744329E1;2.253447056E0;-2.646762848E0;-5.038038731E0
2.012575365E1;4.366653919E0;-6.288029671E0;-2.929588318E0
2.014406548E1;7.096116543E-1;-8.192147255E0;-2.152728319E0
2.016237255E1;-1.524035931E-1;-5.670755386E0;-4.718490601E0
2.018068902E1;7.538124323E-1;-2.009992599E-1;-5.431617737E0
2.019900042E1;6.424207687E-1;2.398447990E0;-3.998001814E0
2.021731420E1;-1.577259183E0;-3.590989113E0;-1.983845592E0
2.023560967E1;-5.325626850E0;-9.335001945E0;6.668232918E0
2.025393578E1;-5.724506855E0;-6.669953346E0;7.375339985E0
2.027224718E1;-6.750106812E-3;8.874149323E-1;1.946992636E0
2.029055327E1;8.682327271E-1;3.750283241E0;2.494010448E0
2.030887090E1;4.403741360E-1;2.730214119E0;4.400029659E0
2.032718285E1;-5.056852102E-1;1.086763382E0;5.378772259E0
2.034549419E1;-7.503390312E-2;3.217840195E-1;4.757934570E0
2.036380614E1;8.348828554E-1;-2.216005325E-1;3.084772587E0
2.038211791E1;6.294248104E-1;-5.845537186E-1;1.567205310E0
2.040042974E1;-8.219746351E-1;-4.770612717E-1;5.587739348E-1
2.041873967E1;-1.980555058E0;1.260239601E0;9.752293825E-1
2.043705291E1;-2.459440470E0;3.106071472E0;7.233872414E-1
2.045536461E1;-1.911391735E0;3.260730743E0;-5.409654975E-2
2.047367626E1;-5.309048891E-1;1.900706291E0;-2.233040333E-1
2.049198797E1;6.604654789E-1;9.520006180E-1;-3.856874406E-1
2.051030004E1;1.045068741E0;1.709224701E0;-9.188485146E-1
2.052861181E1;4.555709362E-1;2.951746941E0;-1.109051943E0
2.054692443E1;3.726500273E-1;2.948098660E0;-6.878821850E-1
2.056523516E1;1.284370422E0;1.512377739E0;-8.148399591E-1
2.058355108E1;2.277016878E0;7.255506516E-1;-9.407777786E-1
2.060185863E1;2.068428040E0;9.217491150E-1;-1.335104704E0
2.062017162E1;7.493569851E-1;-2.057170868E-2;-1.467192888E0
2.063848180E1;-2.017703056E-1;-8.590126038E-1;-2.037494421E0
2.065678252E1;1.285386086E0;-5.739231110E-1;-2.332309008E0
2.067510576E1;4.262709618E0;-6.844444275E-1;-2.938663483E0
2.069341723E1;4.837028503E0;-1.340563774E0;-3.190510511E0
2.071172869E1;2.622853756E0;-1.729194641E0;-1.940779686E0
2.073003441E1;2.466585875E0;-2.408630371E0;-2.812922001E-2
2.074835375E1;2.671093225E0;-3.043431282E0;1.167960763E0
2.076666424E1;3.002186298E0;-2.961935043E0;1.640568733E0
2.078497582E1;1.354773045E0;-2.505066872E0;5.506321192E-1
2.080328295E1;-5.626027584E-1;-2.777726173E0;-5.835396647E-1
2.082159929E1;-2.069894314E0;-3.378913879E0;1.185793161E0
2.083991143E1;-2.930140018E0;-6.062356949E0;2.151880980E0
2.085822112E1;-4.429543018E0;-6.811135292E0;2.181083679E0
2.087653466E1;-5.046779633E0;-5.242558479E0;2.121825218E0
2.089484343E1;-3.764012337E0;-3.266217232E0;1.460228443E0
2.091315795E1;-9.956563711E-1;-9.829540253E-1;1.189643741E0
2.093146361E1;1.695982933E0;8.272171021E-1;3.632634878E-1
2.094978173E1;1.444573760E0;1.402020454E0;5.702764988E-1
2.096809350E1;4.751816988E-1;2.751479149E0;1.215531826E0
2.098640502E1;-3.707950115E-1;4.204691410E0;1.509560943E0
2.100471654E1;-7.401935458E-1;5.750920773E0;1.910073876E0
2.102302849E1;-6.288254261E-1;6.349553108E0;1.881323814E0
2.104134008E1;-7.642556429E-1;5.413699150E0;1.588203907E0
2.105965068E1;-7.659469843E-1;4.896479130E0;1.109378815E0
2.107796331E1;-1.211924911E0;5.483798027E0;8.114657402E-1
2.109627544E1;-1.523257613E0;5.289001465E0;-1.802599430E-1
2.111458684E1;-9.257677794E-1;3.605553627E0;-2.038353205E0
2.113289892E1;4.891605377E-1;1.933537960E0;-3.990849018E0
2.115121001E1;1.952474952E0;6.143016815E-1;-4.413027287E0
2.116952245E1;4.051603794E0;-1.749426842E0;-1.981291294E0
2.118783422E1;3.246539593E0;-6.429057121E0;-5.873833895E-1
2.120614568E1;-4.097412825E-1;-8.318276405E0;-3.309923649E0
2.122445641E1;6.542478800E-1;-4.116643906E0;-4.756410599E0
2.124277221E1;1.940154910E0;2.698902130E0;-4.965012550E0
2.126108220E1;1.287422895E0;2.522244453E0;-3.840742588E0
2.127939287E1;-2.484645844E0;-5.325408936E0;2.031538486E-1
2.129769140E1;-8.691613197E0;-1.287183571E1;1.226008034E1
2.131601616E1;-5.412004471E0;-7.403011322E0;5.570050240E0
2.133432799E1;6.287018061E-1;8.179178238E-1;7.433636189E-1
2.135263958E1;-1.369472980E0;5.101630211E0;1.037500620E0
2.137095110E1;-6.549668312E-1;4.235533714E0;2.687785864E0
2.138926439E1;-5.467985272E-1;3.158992767E0;5.509426594E0
2.140757494E1;1.429029465E0;4.125595093E-1;6.259740829E0
2.142587700E1;3.334353924E0;-2.247330666E0;5.002980709E0
2.144419817E1;1.984024048E0;-2.775644302E0;1.489975333E0
2.146251024E1;-1.416311026E0;-7.769327164E-1;-5.335498452E-1
2.148082177E1;-3.491092205E0;2.012392044E0;3.717638850E-1
2.149913250E1;-3.768822193E0;4.007461071E0;6.779631972E-2
2.151744500E1;-2.718480587E0;4.167948723E0;-7.740205526E-1
2.153575701E1;-7.669728994E-1;1.190522194E0;1.057527587E-1
2.155406853E1;5.898344517E-1;-4.141521454E-2;1.638574600E-1
2.157237603E1;4.389263391E-1;1.771818161E0;-7.030334473E-1
2.159069176E1;1.561690569E-1;2.981081009E0;-1.232370377E0
2.160900408E1;1.035587549E0;3.211697102E0;-1.557124138E0
2.162731591E1;2.169201612E0;1.751996040E0;-1.129332304E0
2.164562768E1;2.681185484E0;3.713083267E-1;-8.320374489E-1
2.166393895E1;2.024798155E0;6.044902802E-1;-1.878373623E0
2.168225121E1;-4.596252739E-1;5.988655090E-1;-1.919310331E0
2.170055681E1;2.226737142E-1;-2.788143158E-1;-2.146557331E0
2.171887450E1;2.145555019E0;-2.242460251E-1;-2.154800653E0
2.173717937E1;3.633485556E0;-8.531894684E-1;-2.774538994E0
2.175549810E1;2.462368488E0;-1.240869522E0;-2.801003456E0
2.177380980E1;1.266153812E0;-1.224520683E0;-1.097937226E0
2.179212133E1;2.173650026E0;-2.007053375E0;5.902440548E-1
2.181043279E1;3.978184462E0;-1.998469353E0;1.286555171E0
2.182874608E1;3.294018269E0;-2.143470764E0;1.552784443E-1
2.184705663E1;9.250971079E-1;-3.351598740E0;-1.113468528E0
2.186536846E1;-1.646919608E0;-4.946393013E0;1.175565600E0
2.188367980E1;-2.859050035E0;-6.354251862E0;2.371755362E0
2.190199187E1;-3.816065073E0;-6.824270248E0;2.479368448E0
2.192030376E1;-3.892886162E0;-6.103691101E0;2.098650932E0
2.193861528E1;-3.401623726E0;-5.261480331E0;1.300493002E0
2.195692754E1;-1.578032136E0;-3.326875687E0;5.656401515E-1
2.197523864E1;1.035359502E0;-4.347372055E-1;1.029204130E-1
2.199355053E1;7.666513920E-1;5.922536850E-1;4.617275298E-1
2.201186229E1;9.143948555E-3;1.914939404E0;1.633542299E0
2.203017498E1;-1.037266731E0;3.825552940E0;2.003129005E0
2.204848583E1;-1.428221464E0;5.712403297E0;2.319548130E0
2.206679760E1;-8.733831048E-1;7.047495842E0;2.121119499E0
2.208510936E1;-1.403832436E-1;6.978612900E0;1.734382510E0
2.210342089E1;3.049421310E-2;5.868985176E0;1.130000591E0
2.212173266E1;-5.302041769E-1;5.551356316E0;1.001479268E0
2.214003978E1;-7.850223780E-1;5.766236305E0;2.001447678E-1
2.215835644E1;-5.541523695E-1;4.665713787E0;-1.260161161E0
2.217666424E1;1.006364822E-1;2.782411575E0;-3.594247341E0
2.219497973E1;6.938046217E-1;4.822359085E-1;-4.906003475E0
2.221328686E1;2.231087685E0;-2.450039864E0;-2.563411951E0
2.223160070E1;3.095401049E0;-6.434629440E0;6.425095797E-1
2.224991478E1;-4.001128674E-1;-8.106976509E0;-1.960866451E0
2.226822558E1;-1.915321350E-1;-5.591632843E0;-3.959614754E0
2.228653856E1;1.217930079E0;1.218250275E0;-4.948874950E0
2.230485039E1;8.197203875E-1;3.856231689E0;-4.949897766E0
2.232316155E1;-1.401791215E0;-3.176375389E0;-2.836910725E0
2.234146782E1;-5.285587311E0;-1.109624100E1;7.983526230E0
2.235978545E1;-5.532600880E0;-8.815382957E0;7.839306355E0
2.237809716E1;-1.961641908E-1;4.383563995E-2;7.496132851E-1
2.239640862E1;-1.763248444E-2;4.576965332E0;9.936372042E-1
2.241471788E1;4.682428241E-1;3.232470512E0;4.318570614E0
2.243303222E1;7.148076296E-1;1.342466354E0;6.334127903E0
2.245134423E1;1.531043172E0;-4.080066681E-1;4.898061752E0
2.246965685E1;2.694412708E0;-1.551473618E0;3.701412916E0
2.248796776E1;1.667354107E0;-1.429445267E0;3.062523603E0
2.250627953E1;-1.359560966E0;-7.915229797E-1;1.256433129E0
2.252459099E1;-3.222346783E0;1.340807915E0;6.669281721E-1
2.254290282E1;-3.764150143E0;3.076519012E0;3.124035001E-1
2.256121489E1;-3.155361176E0;3.915727615E0;-2.590100169E-1
2.257952636E1;-1.340879440E0;1.997995853E0;-2.436182201E-1
2.259783806E1;4.713862538E-1;6.560516357E-2;-1.155365258E-1
2.261614959E1;9.595311284E-1;1.070809364E0;-5.194093585E-1
2.263446135E1;4.632043839E-2;3.149864197E0;-4.617576599E-1
2.265277636E1;-1.718202829E-1;3.321776390E0;-3.663060069E-1
2.267108483E1;9.866800308E-1;2.054704666E0;-8.952369690E-1
2.268938231E1;2.066353559E0;1.008825302E0;-1.434642196E0
2.270769744E1;2.509781361E0;4.168825150E-1;-1.571479321E0
2.272600860E1;1.513264298E0;-1.491603851E-1;-1.891734481E0
2.274432097E1;7.451167703E-2;4.335479736E-1;-1.712466955E0
2.276263219E1;4.104245603E-1;8.427810669E-2;-1.502993584E0
2.278096239E1;3.154969931E0;-6.845912933E-1;-1.876018524E0
2.279925902E1;4.444779873E0;-1.292416573E0;-2.518785715E0
2.281757885E1;2.886449337E0;-1.428462982E0;-2.586333036E0
2.283589055E1;2.629497051E0;-1.782876015E0;-2.746404409E-1
2.285419799E1;2.543225527E0;-2.395384789E0;1.049757361E0
2.287251433E1;2.721441507E0;-2.746207237E0;1.275363803E0
2.289082592E1;2.085862637E0;-2.707654953E0;5.183271170E-1
2.290913646E1;-1.216412783E-1;-2.855157852E0;-9.732051492E-1
2.292744970E1;-2.226248264E0;-3.453127861E0;1.376645923E0
2.294576152E1;-3.082658768E0;-6.373704910E0;1.937531471E0
2.296407317E1;-4.261902809E0;-7.489128113E0;1.843436599E0
2.298237987E1;-4.883370876E0;-5.820273399E0;1.452457190E0
2.300069689E1;-3.921939373E0;-3.502551079E0;1.325626493E0
2.301900621E1;-1.686321139E0;-1.494499207E0;1.085403800E0
2.303730993E1;1.146474719E0;2.701883316E-1;5.153008103E-1
2.305562060E1;1.408694983E0;1.098576546E0;9.223520756E-1
2.307393236E1;1.951292753E-1;2.641233444E0;1.638991594E0
2.309224389E1;-9.647734761E-1;4.429910660E0;1.326821685E0
2.311056878E1;-1.113247156E0;6.086097717E0;1.745500088E0
2.312887859E1;-8.849710226E-1;6.762745857E0;1.766310692E0
2.314719060E1;-4.116110802E-1;5.744463444E0;1.637188435E0
2.316550243E1;-3.500738144E-1;4.871128559E0;9.908870459E-1
2.318381469E1;-1.017580390E0;5.294096470E0;5.262550116E-1
2.320212279E1;-1.322535872E0;5.219652653E0;-1.574668884E-1
2.322043743E1;-1.141819119E0;3.684301376E0;-1.800562263E0
2.323873900E1;-4.792428017E-2;2.034008980E0;-3.941472054E0
2.325704906E1;1.157756090E0;-5.304908752E-2;-5.439826012E0
2.327537255E1;2.987245083E0;-2.802960396E0;-3.624288321E0
2.329367467E1;3.364362717E0;-6.886281967E0;-8.899664879E-2
2.331198650E1;-4.693788290E-1;-8.185727119E0;-2.658925533E0
2.333029851E1;1.652866364E0;-4.943938255E0;-5.152226925E0
2.334860869E1;1.147622705E0;1.630125046E0;-4.596616745E0
2.336692217E1;-4.104855061E-1;2.251745224E0;-3.921564817E0
2.338523314E1;-3.232277870E0;-5.876049042E0;-1.114857435E0
2.340354491E1;-6.594640732E0;-1.101758194E1;8.606897354E0
2.342185601E1;-4.425649643E0;-5.212880135E0;4.806453228E0
2.344016820E1;5.549250841E-1;1.721255302E0;1.154104948E0
2.345847985E1;-5.760559440E-1;3.490864754E0;3.465802670E0
2.347679058E1;-3.303642273E-1;2.064472198E0;4.866969109E0
2.349510314E1;3.099635839E-1;1.176893234E0;5.744812012E0
2.351341430E1;1.321102858E0;3.689870834E-1;4.325161934E0
2.353172692E1;1.180481315E0;-3.774480820E-1;3.479350567E0
2.355004424E1;2.414020300E-1;-7.954063416E-1;1.761346698E0
2.356836052E1;-1.689509034E0;-1.711368561E-1;4.023600817E-1
2.358667266E1;-2.698177338E0;1.730373383E0;8.401781321E-2
2.360498436E1;-2.545629025E0;3.499874115E0;3.077487350E-1
2.362329149E1;-1.954287529E0;3.362667084E0;4.454299808E-2
2.364160760E1;-4.448823929E-1;1.493997574E0;3.829115629E-1
2.365991967E1;6.801449060E-1;9.306964874E-1;-1.665592194E-2
2.367823046E1;8.059049845E-1;1.873533249E0;-3.361678720E-1
2.369654320E1;2.323728204E-1;3.172217369E0;-5.892001390E-1
2.371485485E1;6.932307482E-1;2.916951180E0;-1.362758756E0
2.373316649E1;1.450896978E0;1.307529449E0;-1.654099703E0
2.375147844E1;2.662455559E0;4.905061722E-1;-1.462256193E0
2.376979021E1;2.339855194E0;8.214941025E-1;-9.750303030E-1
2.378810180E1;6.333632469E-1;6.852912903E-1;-2.223636389E0
2.380641356E1;9.071642160E-2;-1.936378479E-1;-2.434626818E0
2.382472564E1;1.725205421E0;-9.225130081E-1;-2.090399742E0
2.384303710E1;3.831200123E0;-1.128958702E0;-2.067922354E0
2.386134856E1;3.515779495E0;-1.917489052E0;-2.691294670E0
2.387966472E1;1.620254755E0;-2.058426857E0;-2.144138813E0
2.389797216E1;2.508167505E0;-2.799093246E0;1.148853302E-1
2.391628411E1;2.704542637E0;-2.943668365E0;1.747416377E0
2.393459282E1;2.646460533E0;-3.389733315E0;1.614504933E0
2.395290752E1;1.224340558E0;-3.275339127E0;6.338404417E-1
2.397121941E1;-1.114606261E0;-2.705074310E0;-1.082196236E0
2.398953130E1;-2.499978065E0;-2.913435936E0;1.736418843E0
2.400784276E1;-3.367835760E0;-5.394300461E0;2.018782616E0
2.402615484E1;-3.978010178E0;-6.071065903E0;1.897610664E0
2.404446654E1;-3.937420130E0;-4.563729286E0;1.370385885E0
2.406277349E1;-3.070083618E0;-2.885644913E0;9.976530671E-1
2.408108983E1;-1.030887961E0;-9.196481705E-1;1.064793348E0
2.409940185E1;1.173477769E0;6.485223770E-1;2.601252496E-1
2.411771239E1;1.001137376E0;1.512485504E0;5.415120125E-1
2.413602532E1;2.353533506E-1;2.731672287E0;1.464973092E0
2.415433654E1;-3.159011602E-1;4.255769730E0;1.814050913E0
2.417264892E1;-6.159315109E-1;5.822102547E0;2.106658459E0
2.419095458E1;-7.907911539E-1;6.410185337E0;2.083557129E0
2.420927508E1;-1.204760909E0;5.419317245E0;1.604930162E0
2.422758391E1;-1.206936359E0;4.846347332E0;9.618804455E-1
2.424589385E1;-1.411116719E0;5.295533657E0;5.920287371E-1
2.426420757E1;-1.296433210E0;4.963684082E0;-2.372970581E-1
2.428251928E1;-8.955085874E-1;3.614459991E0;-1.914129853E0
2.430083074E1;5.713880062E-2;1.879872799E0;-3.681098461E0
2.431914159E1;1.140421510E0;-2.357311249E-1;-4.075513363E0
2.433746019E1;3.212156534E0;-3.518823624E0;-1.747110248E0
2.435576635E1;2.091636181E0;-6.691320419E0;-9.063851833E-2
2.437407787E1;-4.957579374E-1;-8.067238808E0;-4.024603844E0
2.439238982E1;9.310598373E-1;-3.776934624E0;-5.627322674E0
2.441070165E1;1.823642850E0;3.040940285E0;-5.089758873E0
2.442901342E1;7.328006029E-1;2.094186306E0;-3.681235552E0
2.444732494E1;-1.947414517E0;-5.065420151E0;2.629523277E-1
2.446563701E1;-6.217324734E0;-1.094618034E1;9.740076065E0
2.448394872E1;-5.937703133E0;-6.808560371E0;5.862845421E0
2.450226079E1;-9.830226898E-1;4.612655640E-1;3.909425735E-1
2.452057317E1;-9.263707399E-1;3.959509850E0;8.101850748E-1
2.453888372E1;-6.606198549E-1;3.824415207E0;2.795381546E0
2.455719561E1;-8.170897365E-1;2.616734982E0;5.180835724E0
2.457550750E1;3.891127110E-1;7.269802094E-1;5.947309017E0
2.459381859E1;1.990589619E0;-1.117896080E0;5.099900246E0
2.461213085E1;1.714643121E0;-1.893014908E0;1.877479672E0
2.463044231E1;-5.480111837E-1;-1.310577393E0;-7.123855352E-1
2.464875554E1;-2.376061201E0;1.266427040E0;3.413049579E-1
2.466706609E1;-2.937168598E0;3.664673805E0;7.612574100E-1
2.468537792E1;-2.506252766E0;4.008600712E0;-1.720054448E-1
2.470368645E1;-1.092994928E0;1.843602180E0;6.672090292E-2
2.472200152E1;1.210417747E-1;2.494897842E-1;4.756658375E-1
2.474031298E1;5.496577024E-1;1.203768730E0;-2.988469005E-1
2.475862505E1;2.768743038E-2;2.713224411E0;-7.748095989E-1
2.477692546E1;2.495355606E-1;2.892487049E0;-1.190835953E0
2.479524852E1;1.232327938E0;1.821815491E0;-1.777984977E0
2.481356005E1;1.924487472E0;7.724647522E-1;-1.374747992E0
2.483186742E1;2.021394253E0;1.595726013E-1;-1.519454002E0
2.485018383E1;1.053980827E0;1.761465073E-1;-1.792697191E0
2.486849584E1;1.080002189E-1;-6.133699417E-1;-1.453067899E0
2.488680706E1;3.685950041E-1;-1.135052681E0;-2.601653337E0
2.490511944E1;2.776592016E0;-9.400663376E-1;-2.352126360E0
2.492343084E1;3.293145180E0;-7.932891846E-1;-2.501763344E0
2.494174267E1;2.369870663E0;-1.621702194E0;-1.833769083E0
2.496004937E1;2.533998489E0;-2.548656464E0;-9.382927418E-2
2.497836596E1;2.476193190E0;-3.237750053E0;1.317993164E0
2.499667815E1;2.691242456E0;-3.432074547E0;1.339196801E0
2.501498967E1;9.118930697E-1;-2.827450752E0;2.177892923E-1
2.503330102E1;-8.606325388E-1;-1.933238983E0;-1.174721718E0
2.505161321E1;-2.056653976E0;-2.295121193E0;6.571756601E-1
2.506992510E1;-2.344949484E0;-4.651930809E0;2.043809652E0
2.508823559E1;-3.652336597E0;-6.551390648E0;1.563613296E0
2.510654833E1;-4.326612949E0;-5.546995163E0;1.277509809E0
2.512486034E1;-3.540791035E0;-3.421872139E0;9.511230588E-1
2.514317211E1;-1.311162472E0;-1.043474197E0;1.016123891E0
2.516148388E1;1.190270185E0;7.650337219E-1;6.074148417E-1
2.517979534E1;1.022799730E0;1.398589134E0;9.360054135E-1
2.519810454E1;-1.461818218E-1;2.255726814E0;1.640935063E0
2.521641906E1;-8.628572226E-1;3.893981934E0;1.775966287E0
2.523471929E1;-1.066094637E0;5.399734020E0;2.038294077E0
2.525304271E1;-7.880696058E-1;6.084568977E0;1.936251640E0
2.527135412E1;-6.438460350E-1;5.324232101E0;1.286749959E0
2.528966741E1;-6.393462420E-1;4.682240009E0;8.192768097E-1
2.530797771E1;-1.004335046E0;5.183371067E0;6.909905672E-1
2.532628942E1;-1.102583766E0;5.487836838E0;-9.479534626E-2
2.534460155E1;-6.870011687E-1;4.240218163E0;-1.597737312E0
2.536291332E1;2.804242373E-1;2.354641914E0;-3.635176182E0
2.538122509E1;1.557553768E0;1.270771027E-1;-4.681669712E0
2.539953496E1;3.328244209E0;-3.346371651E0;-2.753086805E0
2.541784826E1;2.544927120E0;-6.902519226E0;-1.915419102E-1
2.543616015E1;-7.978286147E-1;-8.575435638E0;-3.895290375E0
2.545446910E1;2.548955679E-1;-4.321266174E0;-5.536786079E0
2.547278106E1;1.648988962E0;2.597645760E0;-4.926727772E0
2.549109600E1;3.519837856E-1;2.315118790E0;-3.993683815E0
2.550940746E1;-2.289619446E0;-5.171728134E0;4.085564613E-2
2.552771831E1;-6.460655212E0;-9.946428299E0;1.122454262E1
2.554603069E1;-5.388477802E0;-5.476775169E0;4.899812698E0
2.556434252E1;-2.374971509E-1;8.308067322E-1;7.781828642E-1
2.558265429E1;-4.664263129E-1;3.777594090E0;2.560296297E0
2.560096026E1;3.669679165E-2;2.866662979E0;4.024446011E0
2.561927752E1;-3.283243179E-1;1.335484505E0;5.193396568E0
2.563758983E1;6.572487354E-1;-4.578542709E-1;4.424150467E0
2.565588714E1;1.490310192E0;-8.490762711E-1;3.828976154E0
2.567421282E1;6.404629946E-1;-6.029882431E-1;1.795007944E0
2.569252459E1;-1.125599384E0;2.428388596E-1;4.976835847E-1
2.571083654E1;-2.392550468E0;2.079000473E0;7.403612733E-1
2.572914751E1;-2.705587387E0;3.790410995E0;4.429557920E-1
2.574746044E1;-2.033249140E0;3.615767002E0;-3.790080845E-1
2.576577172E1;-2.406067848E-1;1.230726242E0;-2.887547016E-4
2.578408666E1;9.057710767E-1;5.083370209E-2;-2.864081264E-1
2.580239568E1;7.597158551E-1;1.113800049E0;-7.850804329E-1
2.582070727E1;1.608963013E-1;2.822401047E0;-6.089953184E-1
2.583901873E1;5.654163957E-1;3.075371265E0;-1.040726542E0
2.585732860E1;1.734421492E0;1.609677315E0;-1.729478359E0
2.587564287E1;2.827631712E0;5.149288177E-1;-1.218810558E0
2.589395434E1;2.587035894E0;5.493927002E-1;-1.311533928E0
2.591226574E1;1.115182042E0;-2.405347824E-1;-2.054661512E0
2.593057909E1;-1.928082407E-1;-9.311075211E-1;-2.054461956E0
2.594888964E1;1.152517676E0;-6.338253021E-1;-2.122425556E0
2.596720165E1;3.587752104E0;-1.162713051E0;-2.427367210E0
2.598551299E1;3.269979715E0;-1.565123558E0;-2.715908051E0
2.600381347E1;1.781128526E0;-2.435990334E0;-1.597502589E0
2.602212462E1;2.342411518E0;-3.421825409E0;5.638567209E-1
2.604043725E1;2.562286854E0;-3.683993340E0;1.598455191E0
2.605874901E1;2.603008270E0;-3.167905807E0;1.104451060E0
2.607706084E1;7.882861495E-1;-2.405993462E0;6.621658802E-2
2.609537249E1;-1.323148251E0;-1.874743462E0;-9.608492255E-1
2.611368426E1;-2.650575161E0;-3.130357742E0;2.355747700E0
2.613199608E1;-3.808443546E0;-5.862614632E0;1.891604066E0
2.615030828E1;-4.561899185E0;-5.623180389E0;1.710116148E0
2.616861956E1;-4.275193214E0;-3.460265160E0;1.128923655E0
2.618693114E1;-2.739006519E0;-1.544804573E0;9.431192279E-1
2.620524322E1;-2.911196947E-1;-5.063800812E-1;7.323215008E-1
2.622356322E1;1.912947536E0;3.693084717E-1;4.241754413E-1
2.624187334E1;1.235519290E0;1.057892799E0;9.678556919E-1
2.626018969E1;7.369530201E-2;2.509399891E0;1.442042232E0
2.627850109E1;-4.392919540E-1;4.502257347E0;1.901548386E0
2.629681896E1;-1.222426534E0;4.945753098E0;2.372451544E0
2.631512493E1;-8.568267822E-1;4.498868465E0;2.138100624E0
2.633343670E1;-7.789593935E-1;4.962136745E0;1.087834835E0
2.635174822E1;-6.772782207E-1;5.361191273E0;8.349280357E-1
2.637005571E1;-8.036481142E-1;5.343675613E0;8.233129978E-1
2.638837230E1;-1.132165432E0;4.903142929E0;-3.082952499E-1
2.640668383E1;-7.053916454E-1;3.600525856E0;-2.154304028E0
2.642499535E1;6.172406673E-1;1.924163818E0;-3.714492321E0
2.644330736E1;2.493803263E0;-4.127130508E-1;-3.592017412E0
2.646161913E1;4.105521202E0;-4.016190529E0;-1.739979386E0
2.647993096E1;1.789811373E0;-7.514260292E0;-1.613036513E0
2.649824096E1;-3.465207815E-1;-7.176749229E0;-3.662804365E0
2.651655443E1;1.752761602E-1;-1.815649986E0;-4.914260864E0
2.653486638E1;4.343786240E-1;2.972714424E0;-4.331337929E0
2.655317779E1;-5.871802568E-1;-1.242810249E0;-3.364868641E0
2.657148943E1;-2.762019157E0;-8.394953728E0;1.264872909E0
2.658980175E1;-5.795998573E0;-9.375431061E0;1.009131432E1
2.660811345E1;-3.144174099E0;-2.156788826E0;3.549268007E0
2.662642528E1;-6.579488516E-1;2.570077896E0;1.066201091E0
2.664473681E1;-1.926690817E0;3.310676575E0;2.656538486E0
2.666304857E1;-4.648591280E-1;2.144884109E0;4.777019024E0
2.668136034E1;6.468693018E-1;1.493976593E0;6.008992195E0
2.669967040E1;1.444881916E0;5.497808456E-1;5.474904060E0
2.671798357E1;1.452346444E0;-2.204046249E-1;3.965072632E0
2.673629564E1;9.681606293E-2;-1.066002846E0;6.412106752E-1
2.675460766E1;-1.318103313E0;-1.132488251E-1;-8.823740482E-2
2.677291918E1;-2.418322086E0;1.982999802E0;3.773846030E-1
2.679121734E1;-2.693084240E0;3.775818348E0;4.812104702E-1
2.680953185E1;-1.680561185E0;3.150398254E0;4.334534407E-1
2.682784405E1;2.648690343E-1;9.194183350E-1;5.796926022E-1
2.684615569E1;1.274300337E0;2.373476028E-1;-1.404080689E-1
2.686446752E1;9.476721883E-1;1.487977028E0;-7.811444402E-1
2.688278026E1;1.897208095E-1;2.569935799E0;-6.359102726E-1
2.690109172E1;4.670989513E-1;2.253613949E0;-9.034538269E-1
2.691940276E1;1.016713142E0;1.147705078E0;-1.231453538E0
2.693771422E1;1.794626236E0;1.183927536E0;-1.586649418E0
2.695602660E1;2.272593975E0;3.556442261E-1;-1.303410649E0
2.697434008E1;1.176256776E0;2.304029465E-1;-2.083683491E0
2.699266924E1;3.739696145E-1;-3.194665909E-1;-1.459275961E0
2.701096087E1;1.138008535E-1;-9.400577545E-1;-1.524994731E0
2.702927343E1;1.991069555E0;-1.222975731E0;-1.480008721E0
2.704758422E1;3.186506510E0;-1.792956352E0;-2.550889492E0
2.706589812E1;2.316430807E0;-2.032364845E0;-3.010666370E0
2.708421898E1;1.848278522E0;-2.468914032E0;-1.537610412E0
2.710253100E1;2.960599899E0;-2.818454742E0;4.760053158E-1
2.712084307E1;2.817865849E0;-2.682394981E0;1.793817878E0
2.713915355E1;1.997385025E0;-3.072661400E0;1.431223869E0
2.715746630E1;5.719705820E-1;-2.447368622E0;1.668503284E-1
2.717577807E1;-1.386311531E0;-1.949982643E0;-4.594128132E-1
2.719408983E1;-2.691338778E0;-2.546880722E0;4.997402430E-1
2.721240185E1;-3.405654669E0;-4.722303391E0;2.204935312E0
2.723071331E1;-4.424556732E0;-5.791707993E0;1.416852713E0
2.724902538E1;-4.324807167E0;-4.034307480E0;9.084711671E-1
2.726733855E1;-2.861622334E0;-2.074016571E0;1.005219579E0
2.728564916E1;-7.799766064E-1;-9.118833542E-1;1.033497453E0
2.730396044E1;1.500658512E0;1.898479462E-2;6.181454659E-1
2.732227245E1;1.587211967E0;9.959564209E-1;1.203611374E0
2.734058544E1;6.243205070E-1;2.119533539E0;1.125443339E0
2.735889623E1;-5.271297693E-1;4.053125381E0;1.168195605E0
2.737720745E1;-1.101261854E0;5.049629211E0;1.559092999E0
2.739551952E1;-8.873015046E-1;4.874117851E0;1.871733546E0
2.741383129E1;-7.475178242E-1;4.920764446E0;1.411746979E0
2.743214300E1;-1.033635974E0;5.698179722E0;1.170465946E0
2.745045452E1;-1.207341909E0;6.186336040E0;9.616761208E-1
2.746876787E1;-6.977338195E-1;5.407535553E0;1.260964870E-1
2.748707860E1;-4.209184647E-2;4.114455700E0;-1.907039285E0
2.750539019E1;1.130307794E0;2.762680054E0;-4.351537704E0
2.752369695E1;1.921170592E0;7.667436600E-1;-4.340142250E0
2.754201366E1;2.779905319E0;-2.066698074E0;-1.446112633E0
2.756032573E1;7.455745935E-1;-5.641322136E0;3.229105473E-1
2.757863598E1;-1.533566952E0;-7.352165222E0;-4.089118004E0
2.759694964E1;1.806619048E0;-4.182418823E0;-5.603384972E0
2.761526085E1;3.259713650E0;1.932146072E0;-4.754349709E0
2.763357250E1;1.018162847E0;2.897751331E0;-4.129822731E0
2.765187847E1;-2.136921406E0;-3.540089607E0;-2.956470728E0
2.767019579E1;-5.824176311E0;-1.046006107E1;6.181883812E0
2.768850805E1;-6.467910290E0;-9.915205956E0;1.015590763E1
2.770682262E1;-8.710342646E-2;-6.486682892E-1;2.164501429E0
2.772513164E1;3.413181901E-1;4.290931702E0;9.365797043E-2
2.774344310E1;-2.886943817E-1;3.371421814E0;3.324398279E0
2.776175487E1;-4.529380798E-1;1.551117897E0;6.162395477E0
2.778006200E1;9.419076443E-1;-3.799438477E-3;5.986236572E0
2.779837865E1;1.658480883E0;-1.028700829E0;4.606362343E0
2.781667815E1;1.064290285E0;-1.550310135E0;2.436583757E0
2.783500219E1;-6.914538741E-1;-1.311625481E0;5.157821178E-1
2.785331395E1;-2.053182125E0;1.110527039E0;4.199086428E-1
2.787162566E1;-3.055186749E0;3.247417450E0;7.307145000E-1
2.788993725E1;-2.889476299E0;4.098212242E0;-8.339244127E-2
2.790825042E1;-1.379421592E0;2.390968800E0;-5.929598212E-2
2.792656102E1;6.198358536E-1;7.321996689E-1;3.895173073E-1
2.794487285E1;1.340053320E0;9.852952957E-1;-3.505717814E-1
2.796318432E1;3.657603264E-1;2.511239529E0;-2.439321578E-1
2.798149657E1;8.250176907E-2;3.154122829E0;-4.741030335E-1
2.799980840E1;5.281369090E-1;2.276705265E0;-1.236444950E0
2.801811962E1;1.365479946E0;4.902448654E-1;-2.247641563E0
2.803643133E1;1.766834497E0;-2.572832108E-1;-1.341260910E0
2.805474328E1;1.614832520E0;-3.583002090E-1;-1.384213090E0
2.807305517E1;-1.147240102E-1;4.932308197E-2;-2.292094946E0
2.809136718E1;5.077207088E-2;-5.703248978E-1;-2.533575296E0
2.810967986E1;3.291871786E0;-9.890089035E-1;-2.152801752E0
2.812799102E1;4.865937710E0;-1.544635773E0;-2.445253372E0
2.814630242E1;3.243557692E0;-1.823220253E0;-2.558974981E0
2.816461425E1;2.301475048E0;-2.318974495E0;-1.084162831E0
2.818292571E1;2.903289318E0;-2.599057198E0;5.109064579E-1
2.820123803E1;2.851332426E0;-2.529107094E0;1.592913151E0
2.821954833E1;1.723416328E0;-2.237416267E0;6.729056835E-1
2.823786144E1;-1.367008686E-1;-1.910166740E0;3.300319910E-1
2.825617272E1;-1.588766575E0;-2.253555298E0;-2.312950492E-1
2.827448461E1;-2.375472069E0;-4.042945862E0;2.552925587E0
2.829279491E1;-3.371632576E0;-6.575531960E0;1.662086487E0
2.831110833E1;-4.557863712E0;-6.002150536E0;1.510896206E0
2.832941985E1;-4.574973106E0;-4.343113899E0;1.253332019E0
2.834773101E1;-2.771640301E0;-2.328947067E0;1.148125410E0
2.836604369E1;5.361812115E-1;-1.940355301E-1;4.398570359E-1
2.838435546E1;2.138245583E0;8.113517761E-1;1.236654520E-1
2.840266698E1;1.091441751E0;1.601081371E0;1.154035687E0
2.842097320E1;-3.392434120E-1;2.847095490E0;1.495674253E0
2.843929082E1;-1.115671158E0;4.773404121E0;1.781758308E0
2.845759496E1;-1.441247940E0;5.697265148E0;2.269211769E0
2.847591405E1;-8.264007568E-1;5.353810310E0;2.388152361E0
2.849422625E1;-8.659818172E-1;5.141785145E0;1.214912891E0
2.851253808E1;-1.080425024E0;5.936882496E0;3.457196951E-1
2.853084960E1;-5.545100570E-1;5.246477604E0;5.134135485E-1
2.854916259E1;-1.739367247E-1;4.222267628E0;-1.779168844E-1
2.856747332E1;4.290724993E-1;3.517820358E0;-1.804763913E0
2.858578521E1;1.141039491E0;2.273104668E0;-3.407424450E0
2.860409685E1;1.510621071E0;-6.605882645E-1;-4.489016533E0
2.862240838E1;2.425866842E0;-4.618228912E0;-2.926486015E0
2.864072045E1;1.307032943E0;-7.796196938E0;-9.916025400E-1
2.865903222E1;-1.153169394E0;-8.346868515E0;-2.984483957E0
2.867734520E1;2.358168364E-1;-2.607173920E0;-4.275183678E0
2.869565258E1;1.462365746E0;3.622699738E0;-4.347716331E0
2.871396728E1;2.628365755E-1;1.329778671E0;-3.934334040E0
2.873227959E1;-2.287152767E0;-5.472716331E0;-2.124076605E0
2.875059221E1;-4.933604240E0;-9.061450005E0;8.681912422E0
2.876890258E1;-4.242925644E0;-4.962190628E0;7.112272263E0
2.878721489E1;-3.676774502E-1;8.537082672E-1;2.177155733E0
2.880552642E1;-1.297551632E0;3.120306969E0;1.320543528E0
2.882384105E1;-9.322991967E-1;2.275099277E0;3.254597664E0
2.884214965E1;1.906603575E-2;1.644052982E0;5.227444649E0
2.886045586E1;1.342964530E0;9.588727951E-1;5.563490391E0
2.887877361E1;1.790211082E0;-1.131057739E-2;4.897105694E0
2.889709130E1;9.536660910E-1;-1.446323395E0;2.078677654E0
2.891539696E1;-6.107686758E-1;-1.252127647E0;3.018750548E-1
2.893370403E1;-2.117935896E0;9.666681290E-1;6.667178869E-2
2.895202068E1;-2.843561649E0;3.142271996E0;4.456654191E-1
2.897033251E1;-2.743786812E0;3.669346333E0;1.374075115E-1
2.898864281E1;-8.586025238E-1;1.770501137E0;4.631427824E-1
2.900695696E1;9.042071700E-1;5.111837387E-1;2.043630034E-1
2.902526793E1;1.149213314E0;1.041269302E0;-8.797543049E-1
2.904356518E1;3.811243773E-1;2.404413223E0;-8.036041856E-1
2.906188640E1;5.844449997E-1;2.527093887E0;-7.178264856E-1
2.908020336E1;1.002468348E0;2.042843819E0;-1.012552381E0
2.909851488E1;1.569683075E0;9.957981110E-1;-1.433351278E0
2.911682561E1;1.813476324E0;5.536699295E-1;-1.162305117E0
2.913513579E1;1.333674192E0;-1.593055725E-1;-1.965049744E0
2.915345000E1;8.322868943E-1;-1.501731873E-1;-2.001842737E0
2.917176220E1;1.392495751E0;-6.537742615E-1;-1.876552820E0
2.919007140E1;3.423329830E0;-6.780462265E-1;-1.670746803E0
2.920837365E1;4.463943005E0;-1.113171577E0;-2.132674932E0
2.922668633E1;2.756767750E0;-1.842619896E0;-2.515346527E0
2.924499840E1;2.172847271E0;-2.703579903E0;-1.080315113E0
2.926330980E1;2.517778873E0;-3.042879105E0;8.587702513E-1
2.928162108E1;1.857072353E0;-3.372744560E0;1.313297033E0
2.929993285E1;1.427579165E0;-3.277728081E0;8.509639502E-1
2.931824486E1;-4.919403791E-2;-2.239545822E0;1.442954540E-1
2.933655700E1;-1.202656746E0;-1.393744469E0;-6.354340911E-1
2.935486822E1;-1.932962298E0;-2.679481506E0;1.540479302E0
2.937318664E1;-3.070173740E0;-5.366884232E0;1.418943048E0
2.939149242E1;-4.332214355E0;-5.410642624E0;1.683182716E0
2.940981841E1;-4.228339195E0;-3.698660851E0;9.923458695E-1
2.942812664E1;-2.835440159E0;-1.839420319E0;1.037365437E0
2.944643877E1;7.828712463E-2;-2.070846558E-1;7.963265181E-1
2.946475048E1;2.019323349E0;4.738073349E-1;1.776589155E-1
2.948306249E1;1.492474079E0;9.201326370E-1;3.953381777E-1
2.950136785E1;2.202423811E-1;2.224328041E0;1.130435348E0
2.951968853E1;-7.755258679E-1;3.837895870E0;2.180111170E0
2.953799755E1;-1.208412170E0;5.066508293E0;2.546411753E0
2.955630956E1;-1.241923094E0;5.293218613E0;2.375453949E0
2.957461669E1;-9.727572203E-1;4.698995590E0;1.823041677E0
2.959293291E1;-1.037234545E0;4.812173843E0;1.286269426E0
2.961124486E1;-1.088373899E0;5.569585800E0;7.736558914E-1
2.962955571E1;-1.423132420E0;5.466176510E0;-9.985125065E-2
2.964786834E1;-9.135429859E-1;4.043952942E0;-1.207592964E0
2.966618041E1;2.309101820E-1;2.372805119E0;-2.763092041E0
2.968449218E1;1.487276554E0;8.498668671E-2;-4.848700523E0
2.970279912E1;3.221589088E0;-3.216963768E0;-4.345184803E0
2.972111553E1;3.999607801E0;-7.364645004E0;-1.665439487E0
2.973942748E1;9.076309204E-1;-7.721129417E0;-2.876296759E0
2.975773705E1;2.167960405E-1;-3.402863503E0;-4.693104744E0
2.977605095E1;2.683483362E-1;1.581329346E0;-5.159280777E0
2.979436272E1;1.451063156E-1;-1.206322670E0;-4.427903175E0
2.981267455E1;-8.259129524E-1;-6.641994476E0;-3.478024006E-1
2.983098626E1;-4.537591934E0;-8.159525871E0;9.592012405E0
2.984929808E1;-3.860261917E0;-2.037471771E0;6.278242111E0
2.986760979E1;-1.438290596E0;2.949208260E0;1.762079477E0
2.988590960E1;-1.794001579E0;3.148589134E0;1.867393851E0
2.990423369E1;-9.573770165E-1;1.432292938E0;3.460995197E0
2.992254516E1;2.364594936E-1;9.418001175E-1;5.870288849E0
2.994085686E1;1.291212678E0;4.261598587E-1;5.519348621E0
2.995917016E1;1.418475509E0;-5.217962265E-1;3.540817499E0
2.997748052E1;7.866648436E-1;-1.355638504E0;5.133484602E-1
2.999579241E1;-9.746377468E-1;-2.679681778E-1;2.754771709E-1
3.001410399E1;-2.654152393E0;2.052700996E0;8.226644397E-1
3.003241594E1;-2.941131592E0;3.689249039E0;5.931042433E-1
3.005072796E1;-2.183866262E0;3.110651970E0;-3.347575665E-3
3.006903954E1;-1.685142517E-1;7.212877274E-1;3.382475972E-1
3.008735222E1;8.304965496E-1;1.774559021E-1;-1.354430616E-2
3.010566314E1;4.403052330E-1;1.383698463E0;-9.359703064E-1
3.012397484E1;-5.116567612E-1;2.739888191E0;-9.928904772E-1
3.014228197E1;-1.846178174E-1;3.227448463E0;-5.797059536E-1
3.016059813E1;1.241196871E0;2.529920101E0;-5.954107046E-1
3.017891033E1;2.328729868E0;5.534439087E-1;-1.534637332E0
3.019722216E1;1.930287719E0;-1.899032593E-1;-2.275135756E0
3.021552233E1;7.523718476E-1;-1.171207428E-2;-2.347304106E0
3.023384514E1;2.122367620E-1;-2.878971100E-1;-1.699530721E0
3.025215746E1;1.491812110E0;-2.175312042E-1;-1.942545176E0
3.027046318E1;4.164133072E0;-8.723382950E-1;-2.155148029E0
3.028876738E1;4.154566288E0;-1.326683998E0;-2.770826340E0
3.030708166E1;2.272049904E0;-1.764911652E0;-1.973877907E0
3.032539452E1;2.778468370E0;-2.599677086E0;2.892787457E-1
3.034370525E1;2.861485481E0;-2.476790428E0;1.703215003E0
3.036201775E1;2.498805046E0;-2.454545021E0;1.075789690E0
3.038032909E1;8.395200372E-1;-2.748724937E0;3.349616528E-1
3.039864061E1;-1.393457890E0;-2.810334206E0;-9.516453743E-1
3.041695128E1;-1.917187810E0;-3.581399918E0;1.267067075E0
3.043526604E1;-2.734097242E0;-6.004402161E0;1.548850298E0
3.045357580E1;-4.070825577E0;-6.601141930E0;1.677721262E0
3.047188842E1;-4.315524101E0;-5.241908073E0;1.282303691E0
3.049019988E1;-3.436721802E0;-3.503988266E0;7.903038263E-1
3.050852544E1;-6.332316399E-1;-1.397784233E0;6.497222781E-1
3.052683513E1;1.905423999E0;3.555240631E-1;3.768534660E-1
3.054514611E1;1.188199878E0;1.299307823E0;9.231571555E-1
3.056345818E1;-3.293871880E-1;2.828189850E0;1.252178311E0
3.058176970E1;-1.142150640E0;4.442260742E0;1.704096675E0
3.060007891E1;-1.196317911E0;5.766904831E0;2.378869534E0
3.061839306E1;-7.043933868E-1;6.252194405E0;2.412906647E0
3.063670507E1;-2.847596407E-1;5.459053040E0;1.760562062E0
3.065501677E1;-6.609086990E-1;4.923574448E0;1.136711597E0
3.067332812E1;-1.022427797E0;5.220348358E0;4.903999567E-1
3.069164037E1;-1.187661052E0;5.022686005E0;-5.344117880E-1
3.070995214E1;-1.187171340E0;3.791807175E0;-2.102841139E0
3.072826531E1;-3.156148195E-1;2.128172874E0;-3.873277664E0
3.074657543E1;1.125268936E0;3.385915756E-1;-3.963347912E0
3.076489055E1;3.404330254E0;-2.970123291E0;-1.196786404E0
3.078319463E1;2.399214268E0;-6.695704460E0;-6.306755543E-2
3.080151122E1;7.387149334E-2;-7.002423286E0;-4.200298309E0
3.081982274E1;1.390791059E0;-3.086716652E0;-5.556736946E0
3.083813476E1;1.889253616E0;2.926554680E0;-4.235909462E0
3.085644671E1;-5.315286517E-1;-9.935951233E-2;-3.510140896E0
3.087475829E1;-3.731173038E0;-9.417098045E0;2.639149904E0
3.089306975E1;-5.833101749E0;-1.099587822E1;9.740670204E0
3.091137884E1;-2.695886612E0;-2.620991707E0;2.640602112E0
3.092969365E1;-8.316810131E-1;3.422817230E0;1.175634980E0
3.094800554E1;-1.810343266E0;3.394159317E0;3.755445480E0
3.096631707E1;-5.555714965E-1;1.707621574E0;5.751162529E0
3.098462914E1;1.033977151E0;4.401111603E-1;5.244842052E0
3.100294091E1;1.857976437E0;-9.190349579E-1;3.937206268E0
3.102125268E1;1.543839574E0;-9.247016907E-1;3.566641569E0
3.103956591E1;-5.477569699E-1;-7.889347076E-1;1.494910121E0
3.105787597E1;-2.121231318E0;4.799337387E-1;7.838895917E-1
3.107618798E1;-2.648500919E0;1.995906830E0;5.565384030E-1
3.109449810E1;-2.388365030E0;3.133613110E0;3.476154804E-1
3.111281176E1;-1.735116601E0;2.625722885E0;1.862434149E-1
3.113112334E1;-2.396160364E-1;8.139791489E-1;7.501712441E-1
3.114943535E1;5.418248773E-1;3.145208359E-1;-1.484421343E-1
3.116774614E1;7.026206851E-1;1.291978836E0;-1.031478524E0
3.118605858E1;1.652405262E-1;2.780450821E0;-7.521829605E-1
3.120437053E1;6.202106476E-1;3.100426674E0;-6.721567512E-1
3.122268230E1;1.508311152E0;2.057885170E0;-8.554606438E-1
3.124099389E1;2.335468769E0;9.856414795E-1;-1.374282360E0
3.125930614E1;2.220946074E0;3.115816116E-1;-1.479699731E0
3.127761760E1;9.362188578E-1;2.354621887E-3;-2.017196894E0
3.129592937E1;2.176259160E-1;-2.176151276E-1;-1.417929173E0
3.131424114E1;-2.637586594E-1;-5.018949509E-1;-1.866875648E0
3.133255309E1;2.364861965E0;-6.130065918E-1;-1.823477268E0
3.135086461E1;4.351401329E0;-1.026724815E0;-2.394395590E0
3.136917772E1;3.525975704E0;-1.445314407E0;-2.597721100E0
3.138748876E1;2.761530399E0;-1.888258934E0;-9.408204556E-1
3.140580028E1;2.762892246E0;-2.646950722E0;6.163454056E-1
3.142411504E1;2.235949039E0;-3.181623459E0;1.419173956E0
3.144242382E1;1.418211937E0;-3.280457497E0;9.553006887E-1
3.146073559E1;-2.191511393E-1;-2.438692093E0;6.357430220E-1
3.147904735E1;-1.677546740E0;-1.765445709E0;-4.389129281E-1
3.149735448E1;-2.381973267E0;-2.553263664E0;1.287066102E0
3.151567113E1;-3.016139507E0;-5.057241440E0;1.515225887E0
3.153398290E1;-3.913402081E0;-5.470023155E0;1.440689802E0
3.155228972E1;-4.019293308E0;-3.743931770E0;9.317812920E-1
3.157060644E1;-2.893767118E0;-2.081628799E0;8.603183627E-1
3.158891814E1;2.979326248E-2;-4.831228256E-1;8.839098215E-1
3.160723046E1;2.060471535E0;3.568811417E-1;2.894585133E-1
3.162554180E1;1.432719350E0;9.236993790E-1;7.110418677E-1
3.164385344E1;-9.309458733E-2;2.240977764E0;1.169931769E0
3.166216558E1;-8.825104237E-1;3.919056892E0;1.606657743E0
3.168047130E1;-1.049570680E0;5.024950981E0;1.944855094E0
3.169878875E1;-8.492243290E-1;5.148948193E0;1.907597661E0
3.171710100E1;-6.639772058E-1;4.379097939E0;1.509875298E0
3.173540978E1;-6.374212503E-1;4.455214977E0;1.100998044E0
3.175372143E1;-9.215784669E-1;5.272039890E0;8.024293184E-1
3.177203582E1;-1.017763734E0;5.535013199E0;2.811326981E-1
3.179034789E1;-6.863634586E-1;4.201395988E0;-1.034062862E0
3.180865844E1;2.584328651E-1;2.225891113E0;-2.864699841E0
3.182697258E1;1.174518228E0;-2.397356033E-1;-4.670233727E0
3.184528319E1;2.529808044E0;-2.611835480E0;-4.146808624E0
3.186359343E1;3.734663486E0;-5.939826965E0;-1.039447069E0
3.188190691E1;2.539674044E-1;-7.037955284E0;-1.826224923E0
3.190021874E1;6.777298450E-2;-4.665937424E0;-4.202839851E0
3.191853020E1;8.551051617E-1;2.793455124E-1;-5.260247707E0
3.193683025E1;1.469438791E0;1.753119469E0;-4.173825264E0
3.195515410E1;-9.083509445E-2;-2.701346397E0;-3.212456465E0
3.197346612E1;-3.142977715E0;-7.861310959E0;4.207191467E0
3.199177752E1;-5.806907654E0;-8.019755363E0;1.068062973E1
3.201008715E1;-1.884227157E0;-1.050504684E0;2.686954975E0
3.202840160E1;-5.184178352E-1;2.519499302E0;-1.995038986E-2
3.204671312E1;-1.057964087E0;3.496033192E0;1.892243743E0
3.206502465E1;-8.630571365E-1;2.630816936E0;4.642938614E0
3.208333666E1;-2.211785316E-2;1.882895470E0;6.667035103E0
3.210164861E1;1.381821752E0;-1.570768356E-1;5.948278427E0
3.211996422E1;1.506122947E0;-1.450240135E0;2.609302044E0
3.213827288E1;-8.411765099E-3;-1.474472046E0;-7.110384703E-1
3.215658367E1;-1.843348861E0;7.099933624E-1;1.035287380E-1
3.217489263E1;-2.972087383E0;3.188408375E0;7.456256747E-1
3.219320263E1;-2.535744905E0;4.141667843E0;2.141065300E-1
3.221150756E1;-8.880755901E-1;1.984452248E0;2.946452498E-1
3.222983098E1;3.785656691E-1;8.639431000E-2;5.474319458E-1
3.224814306E1;7.982088327E-1;7.494192123E-1;-4.906031489E-1
3.226645458E1;2.169924974E-1;2.413841248E0;-9.861577153E-1
3.228476635E1;3.504614234E-1;2.628737450E0;-1.341916323E0
3.230307836E1;8.784939051E-1;1.699829102E0;-1.888818026E0
3.232138433E1;1.795288801E0;4.065809250E-1;-1.466211319E0
3.233970189E1;1.975812912E0;-4.798221588E-2;-4.756193161E-1
3.235801336E1;9.160162210E-1;3.076353073E-1;-2.323927164E0
3.237632537E1;-3.059227467E-1;2.372455597E-1;-2.424863815E0
3.239463714E1;5.507533550E-1;-2.347803116E-1;-2.081219673E0
3.241294890E1;3.231093407E0;-3.868808746E-1;-1.931723356E0
3.243126061E1;4.702868938E0;-4.691886902E-1;-2.427025318E0
3.244957158E1;3.300496578E0;-7.224578857E-1;-2.831933022E0
3.246788476E1;2.369055986E0;-1.392654419E0;-1.527236700E0
3.248619622E1;2.678509951E0;-2.582229614E0;1.070232391E-1
3.250450878E1;2.402415276E0;-2.945911407E0;1.452524900E0
3.252281975E1;2.444755793E0;-3.187611580E0;1.407435775E0
3.254113152E1;8.279587626E-1;-2.972788811E0;3.635175228E-1
3.255944335E1;-8.817893267E-1;-3.030676842E0;-2.163131237E-1
3.257774218E1;-2.312349558E0;-3.470266342E0;1.241455913E0
3.259605565E1;-3.422818661E0;-5.396827698E0;2.676527977E0
3.261436766E1;-4.452293873E0;-5.977786064E0;2.074797392E0
3.263267467E1;-4.509817600E0;-4.365720749E0;1.119126201E0
3.265099151E1;-3.589523792E0;-2.437161446E0;7.140523791E-1
3.266930297E1;-1.650008678E0;-7.054157257E-1;5.934672356E-1
3.268761687E1;9.520806074E-1;7.183341980E-1;2.612153888E-1
3.270592620E1;9.975048304E-1;1.296385765E0;8.757775426E-1
3.272424950E1;3.279658556E-1;2.212685108E0;1.628447533E0
3.274256151E1;-1.099717617E-1;3.833711147E0;1.945497394E0
3.276087609E1;3.147697449E-1;5.576726437E0;1.995870590E0
3.277918645E1;-6.974558234E-1;5.432564259E0;1.597057343E0
3.279749651E1;-4.137033224E-1;5.050167084E0;1.074941754E0
3.281580858E1;-7.398921251E-1;4.122788429E0;6.110947132E-1
3.283412066E1;-1.092816710E0;4.871290207E0;5.464047194E-1
3.285243236E1;-1.329784274E0;5.457816124E0;3.283843994E-1
3.287074376E1;-1.339420319E0;4.357804298E0;-9.320645332E-1
3.288905590E1;-2.440296412E-1;2.437465668E0;-3.553581715E0
3.290735796E1;1.088295579E0;1.541461945E-1;-5.672982216E0
3.292566918E1;3.331630707E0;-2.065826416E0;-4.114798069E0
3.294398034E1;4.316468239E0;-5.863905907E0;-2.228121758E-1
3.296229332E1;1.814647913E-1;-7.785529137E0;-1.877782226E0
3.298060399E1;-4.205310345E-2;-4.979471207E0;-4.560591698E0
3.299891326E1;1.036208034E0;8.600683212E-1;-4.766548157E0
3.301722667E1;1.984518766E-1;1.880703926E0;-4.238195419E0
3.303555028E1;-2.673005819E0;-5.491133690E0;-1.738867044E0
3.305386229E1;-6.976192951E0;-1.045753574E1;9.621300697E0
3.307217400E1;-5.028865337E0;-4.882358551E0;5.923237801E0
3.309047271E1;-3.793371916E-1;1.469194412E0;7.160383463E-1
3.310879754E1;-7.721659541E-1;3.171671867E0;2.169464827E0
3.312710961E1;-6.078259349E-1;2.060684204E0;4.589292526E0
3.314542125E1;-1.006491184E-1;1.037158966E0;6.506045818E0
3.316373284E1;8.665292263E-1;2.469577789E-1;4.821974754E0
3.318204467E1;1.434573770E0;-6.602468491E-1;3.188606501E0
3.320035668E1;4.665507078E-1;-1.124635696E0;9.844110608E-1
3.321866729E1;-1.716939569E0;-4.929733276E-2;9.787237644E-2
3.323698095E1;-2.980257273E0;2.023409367E0;3.894819021E-1
3.325529216E1;-2.713650227E0;3.741571903E0;4.590833783E-1
3.327360351E1;-1.881600857E0;3.298293114E0;1.887911856E-1
3.329191546E1;2.376170158E-1;1.023089409E0;6.481688023E-1
3.331022734E1;1.334371567E0;4.860801697E-1;-1.866278499E-1
3.332853930E1;1.053313136E0;1.776906013E0;-1.300036311E0
3.334685198E1;2.688537240E-1;3.096408844E0;-1.500188828E0
3.336516295E1;9.628209472E-1;2.857503891E0;-9.637642503E-1
3.338347436E1;2.105196238E0;1.846400261E0;-4.959882200E-1
3.340178643E1;2.491568089E0;1.171708107E0;-1.732820034E0
3.342009594E1;1.935558558E0;5.234975815E-1;-2.189216375E0
3.343841015E1;9.254063368E-1;1.842927933E-1;-1.777368069E0
3.345672216E1;8.744956255E-1;-9.586915970E-1;-1.631135106E0
3.347503374E1;6.018801332E-1;-1.417748451E0;-2.278240442E0
3.349334545E1;2.174376488E0;-4.956302643E-1;-2.259354115E0
3.351165709E1;3.724268436E0;-1.252922058E0;-2.387390137E0
3.352996526E1;3.304333210E0;-2.500238419E0;-1.683939815E0
3.354828216E1;3.390886307E0;-3.510364532E0;2.770835161E-1
3.356659276E1;2.303499222E0;-3.709929466E0;1.657664776E0
3.358490459E1;2.367483139E0;-4.164757729E0;1.799725890E0
3.360321135E1;7.362442017E-1;-3.835893631E0;8.906146288E-1
3.362152807E1;-2.022317886E0;-2.278901100E0;-3.706504107E-1
3.363984008E1;-2.847174644E0;-1.919985771E0;1.191962957E-1
3.365815044E1;-2.717654228E0;-3.296197891E0;2.421546698E0
3.367646337E1;-3.452268124E0;-5.278264046E0;1.145162463E0
3.369477532E1;-3.705502987E0;-4.416912079E0;8.139765859E-1
3.371308690E1;-2.983602524E0;-2.698460579E0;5.697546005E-1
3.373139312E1;-8.717001081E-1;-9.869270325E-1;6.027064323E-1
3.374970751E1;1.697866917E0;-1.556434631E-1;3.376282454E-1
3.376802263E1;1.650311470E0;7.817487717E-1;8.143958449E-1
3.378631994E1;1.437487602E-1;2.257315159E0;1.194385171E0
3.380463701E1;-1.220879197E0;4.491052628E0;1.843103886E0
3.382294640E1;-1.158871651E0;5.205066204E0;2.178776741E0
3.384125890E1;-5.188375711E-1;4.614898205E0;2.190028667E0
3.385957000E1;-2.743899822E-1;4.173959732E0;1.295632362E0
3.387788201E1;-8.099658489E-1;4.395203590E0;7.670158148E-1
3.389619408E1;-1.833822489E0;5.969053268E0;7.039660215E-1
3.391450603E1;-8.008646965E-1;4.997229576E0;1.780431271E-1
3.393281945E1;-2.862986922E-1;3.712564945E0;-1.815833807E0
3.395113128E1;9.423470497E-1;2.680041313E0;-3.719620228E0
3.396944219E1;2.117169619E0;1.363476753E0;-4.288684845E0
3.398775420E1;2.781248569E0;-8.812608719E-1;-1.454158664E0
3.400607616E1;1.449032903E0;-4.458545685E0;7.039537430E-1
3.402438793E1;-6.277850270E-1;-7.378438950E0;-4.017677307E0
3.404269945E1;2.131780624E0;-5.444231033E0;-4.619413376E0
3.406101262E1;2.182193518E0;9.829587936E-1;-3.912373304E0
3.407932348E1;8.779119253E-1;2.392449379E0;-3.887147903E0
3.409763494E1;-2.258398771E0;-4.593139648E0;-2.487124443E0
3.411594664E1;-6.305058479E0;-1.012222767E1;6.436068535E0
3.413425878E1;-6.009593010E0;-7.447514534E0;7.380331993E0
3.415257055E1;2.646368146E-1;2.659912109E-1;8.066780567E-1
3.417088231E1;1.316940784E0;3.628488541E0;2.943395615E0
3.418919500E1;-9.209871292E-2;2.984933376E0;4.814713478E0
3.420750609E1;-1.133123040E-1;1.272424698E0;5.444987297E0
3.422581133E1;1.375103951E0;2.024478912E-1;3.763920307E0
3.424412517E1;1.446412563E0;-3.037338257E-1;3.959001064E0
3.426244115E1;4.678946137E-1;-1.588230133E-1;3.280112743E0
3.428075316E1;-1.433680773E0;-2.073907852E-1;1.199387193E0
3.429906402E1;-2.568714142E0;1.142077446E0;3.816636801E-1
3.431737688E1;-2.776132584E0;3.005549431E0;3.252756000E-1
3.433568834E1;-2.169569016E0;3.787952900E0;8.065056801E-2
3.435400017E1;-5.748378038E-1;1.876654625E0;1.794016957E-1
3.437230767E1;8.694588542E-1;6.708297729E-1;2.795491815E-1
3.439062395E1;1.411206961E0;1.473809242E0;-7.527466416E-1
3.440893554E1;9.905227423E-1;2.436704636E0;-5.142048597E-1
3.442724779E1;3.665116429E-1;2.615099907E0;-7.701882124E-1
3.444555956E1;7.476078868E-1;1.957900524E0;-1.333150506E0
3.446387224E1;1.076116562E0;8.294677734E-1;-1.667360902E0
3.448218285E1;1.672055840E0;7.620143890E-2;-1.783163667E0
3.450048882E1;1.229838014E0;2.698602676E-1;-1.286272049E0
3.451880687E1;-3.008763194E-1;-3.326435089E-1;-2.011862755E0
3.453712474E1;1.810372323E-1;-1.417536736E0;-2.133488178E0
3.455542986E1;3.442155600E0;-9.855155945E-1;-2.271708012E0
3.457374218E1;5.273035049E0;-1.305736542E0;-2.679285526E0
3.459205388E1;3.143504143E0;-1.885272980E0;-2.267649651E0
3.461036602E1;2.216848612E0;-2.788860321E0;9.113144875E-2
3.462867870E1;2.085596800E0;-3.708065033E0;1.424161792E0
3.464699035E1;2.335398674E0;-3.653795242E0;2.223109722E0
3.466530108E1;1.511081696E0;-3.383508682E0;3.845134974E-1
3.468361199E1;-3.725874424E-2;-2.253371239E0;-4.423047304E-1
3.470192473E1;-1.454695344E0;-2.014328957E0;-3.505877256E-1
3.472023662E1;-3.128777981E0;-4.127648354E0;2.763358355E0
3.473854827E1;-5.065270424E0;-6.529129028E0;1.802779675E0
3.475686303E1;-5.511663437E0;-5.487252235E0;1.684719205E0
3.477517125E1;-4.049818993E0;-2.802795410E0;1.559806228E0
3.479348363E1;-1.426028728E0;-7.847509384E-1;9.242930412E-1
3.481179564E1;1.691563487E0;3.581161499E-1;3.124794364E-2
3.483010491E1;1.812128544E0;9.641523361E-1;3.470915854E-1
3.484841894E1;1.361659884E0;2.087317467E0;8.768587112E-1
3.486673113E1;-2.617089748E-1;3.685840130E0;1.335920334E0
3.488504296E1;-3.880895376E-1;5.258645535E0;2.292621613E0
3.490335466E1;-9.907391667E-1;5.186252117E0;2.694561005E0
3.492166649E1;-6.757397652E-1;5.580327034E0;2.025567770E0
3.493997393E1;-3.805170059E-1;5.261279106E0;1.045665741E0
3.495829027E1;-8.775821328E-1;5.512240410E0;5.415140390E-1
3.497660198E1;-9.258295298E-1;5.570317268E0;9.334135056E-2
3.499491350E1;-8.955118656E-1;4.450328827E0;-1.268459558E0
3.501322118E1;5.769538879E-2;3.135573387E0;-3.074621201E0
3.503153753E1;1.099125385E0;1.141783714E0;-4.070413589E0
3.504984905E1;2.300009251E0;-1.566572189E0;-3.633612633E0
3.506815966E1;3.706736803E0;-5.304244041E0;-1.060782552E0
3.508646142E1;7.458359003E-1;-7.874816895E0;-1.757953644E0
3.510478472E1;-1.204750538E-1;-6.651011467E0;-4.539579868E0
3.512309642E1;6.722731590E-1;-2.990188599E-1;-5.028329849E0
3.514140209E1;7.195841074E-1;2.860863686E0;-4.252200127E0
3.515971972E1;-1.515911460E0;-3.324229240E0;-3.104128599E0
3.517803161E1;-4.989399910E0;-9.052084923E0;3.725889444E0
3.519634374E1;-6.116185188E0;-7.246577263E0;1.020608711E1
3.521465300E1;-1.891209960E0;-7.363710403E-1;2.636066675E0
3.523296734E1;3.197923899E-1;2.197403908E0;1.757502556E0
3.525127953E1;-8.257437944E-1;2.881743908E0;3.341999054E0
3.526959228E1;-3.402821422E-1;1.504515648E0;4.580353737E0
3.528790282E1;7.699466944E-1;9.840087891E-1;5.199993134E0
3.530621459E1;1.443525553E0;1.686983109E-1;4.628282547E0
3.532452660E1;1.307649851E0;-3.829898834E-1;3.302034378E0
3.534283837E1;-4.770291448E-1;-8.686885834E-1;6.694688201E-1
3.536114995E1;-2.185770035E0;5.414886475E-1;-2.450895309E-2
3.537946190E1;-2.739220142E0;2.831878185E0;2.237197757E-1
3.539777404E1;-2.266695261E0;3.931624889E0;1.293140650E-1
3.541608532E1;-1.192601800E0;2.376500130E0;5.330067873E-2
3.543439684E1;-2.165430784E-2;7.186012268E-1;9.493322372E-1
3.545270989E1;7.682918310E-1;8.498830795E-1;-4.068532586E-2
3.547102135E1;3.786501288E-1;2.065646172E0;-8.875564933E-1
3.548933275E1;-1.423031688E-1;2.679182053E0;-9.046539068E-1
3.550764452E1;5.654349327E-1;2.318024635E0;-1.436795473E0
3.552595873E1;1.609035254E0;1.253620148E0;-1.790831208E0
3.554427129E1;2.593744278E0;1.712064743E-1;-1.094514132E0
3.556258007E1;1.903119922E0;2.868785858E-1;-1.794296741E0
3.558088555E1;7.666357756E-1;1.367015839E-1;-2.289085388E0
3.559920385E1;8.107544184E-1;-2.487592697E-1;-1.814355969E0
3.561750481E1;2.383539677E0;4.936122894E-2;-1.713426113E0
3.563582744E1;4.382545948E0;-8.082857132E-1;-1.999481201E0
3.565413421E1;2.424257517E0;-1.578931808E0;-2.835403681E0
3.567245092E1;5.423077345E-1;-2.106096268E0;-1.698820949E0
3.569076299E1;2.082858801E0;-2.748868942E0;7.889463902E-1
3.570907348E1;3.316665411E0;-2.754965782E0;1.873894334E0
3.572738640E1;2.840420723E0;-3.148729324E0;1.120279670E0
3.574569567E1;1.412789106E0;-2.811116219E0;4.610165358E-1
3.576401030E1;-7.332659960E-1;-2.213314056E0;-5.616630316E-1
3.578231713E1;-2.490334749E0;-3.337135315E0;1.441442847E0
3.580063360E1;-3.737540722E0;-5.860482216E0;2.133002281E0
3.581894555E1;-4.718492985E0;-5.966232300E0;2.074604511E0
3.583725731E1;-4.503957272E0;-4.391364098E0;1.299687386E0
3.585556945E1;-2.855917454E0;-2.551456451E0;7.409254909E-1
3.587388061E1;7.542967796E-2;-6.854782104E-1;4.356535077E-1
3.589217913E1;2.321642160E0;7.915048599E-1;1.406320035E-1
3.591049535E1;1.495571733E0;1.164387703E0;7.608729601E-1
3.592880547E1;4.648042917E-1;2.198554039E0;1.107208610E0
3.594711608E1;-3.547769785E-1;3.968248844E0;1.774860263E0
3.596542907E1;-8.057200909E-1;5.599271297E0;2.256706238E0
3.598374266E1;-6.299225092E-1;5.998342514E0;2.166632652E0
3.600205266E1;-7.961446047E-1;5.115983486E0;1.717999935E0
3.602036565E1;-1.259927034E0;4.892298222E0;1.293159723E0
3.603867840E1;-1.843785286E0;5.194278717E0;6.413754225E-1
3.605700048E1;-1.832703114E0;4.789230824E0;-5.341840982E-1
3.607531103E1;-6.010767221E-1;3.616252422E0;-1.413074851E0
3.609362255E1;1.011266828E0;1.927537441E0;-2.926868439E0
3.611193450E1;1.992363095E0;-2.453947067E-1;-4.229546547E0
3.613024633E1;3.581276655E0;-2.878174782E0;-2.601179123E0
3.614855840E1;2.372931004E0;-6.402586937E0;-9.650522470E-1
3.616687078E1;-6.068706512E-3;-6.996023178E0;-3.270949602E0
3.618518187E1;1.264850736E0;-2.102030754E0;-5.296406746E0
3.620349395E1;3.790521383E0;2.984260559E0;-5.217267036E0
3.622180102E1;3.423014879E0;2.050957680E0;-3.951203346E0
3.624011327E1;-1.864574671E0;-4.832181931E0;-4.539613724E-1
3.625842894E1;-9.746670723E0;-1.301316643E1;1.330461407E1
3.627674096E1;-7.367525101E0;-7.473371506E0;8.634244919E0
3.629505291E1;-5.444588065E-1;9.387378693E-1;-4.063385725E-1
3.631336419E1;-1.864803791E0;4.990312576E0;4.572092295E-1
3.633167644E1;-2.188864470E0;4.094968796E0;2.454705238E0
3.634998339E1;-1.989517689E0;2.707337379E0;5.207530975E0
3.636830004E1;7.296574116E-2;-9.221076965E-2;6.900480747E0
3.638661168E1;2.849750996E0;-3.252030373E0;4.121118546E0
3.640492357E1;3.753955364E0;-4.203034401E0;1.672340631E-1
3.642323101E1;4.552596807E-1;-1.865799904E0;-6.935069561E-1
3.644154766E1;-2.644055367E0;2.018392563E0;4.754909277E-1
3.645985906E1;-3.097266197E0;4.636917114E0;3.126924634E-1
3.647816967E1;-2.488517523E0;5.039369106E0;-5.391476154E-1
3.649648284E1;-1.379570961E0;1.984277248E0;6.268610060E-2
3.651479192E1;1.946856380E-1;-4.881505966E-1;4.646229148E-1
3.653309624E1;6.705718040E-1;6.674842834E-1;-1.235666156E0
3.655140758E1;-4.002273083E-2;2.875877380E0;-1.779167414E0
3.656971886E1;2.320707440E-1;3.083155632E0;-1.480373502E0
3.658803161E1;1.900009871E0;2.198181152E0;-7.306635976E-1
3.660634234E1;2.656373262E0;1.318045616E0;-1.454705596E-1
3.662465514E1;2.187734127E0;9.349327087E-1;-2.123908043E0
3.664296715E1;4.404946864E-1;5.281476974E-1;-1.841517448E0
3.666128045E1;-9.000048041E-1;-4.389305115E-1;-1.873077154E0
3.667959093E1;1.061607599E0;-7.169466019E-1;-2.080141068E0
3.669790300E1;3.252069712E0;-1.247010231E0;-2.426207066E0
3.671621471E1;2.942289829E0;-1.181700706E0;-2.627236366E0
3.673452636E1;2.388282061E0;-1.859593391E0;-1.392232656E0
3.675283654E1;3.725080013E0;-2.987710953E0;4.684443474E-1
3.677114971E1;3.003351688E0;-3.465743065E0;1.430370331E0
3.678946117E1;2.476625919E0;-4.010435104E0;1.316826582E0
3.680778588E1;2.737230062E-2;-3.502565384E0;-3.363823891E-2
3.682609539E1;-1.690999746E0;-2.220796585E0;-5.980160236E-1
3.684440746E1;-2.219539404E0;-2.624119759E0;6.614966393E-1
3.686271459E1;-3.038374901E0;-5.141806602E0;2.452848911E0
3.688103100E1;-4.223048210E0;-6.158905029E0;1.489393234E0
3.689934276E1;-4.166819096E0;-4.401846886E0;8.193052411E-1
3.691765490E1;-3.038167000E0;-2.722208023E0;5.906691551E-1
3.693595537E1;-7.748076916E-1;-1.045735359E0;6.564378142E-1
3.695427831E1;1.546584010E0;3.102378845E-1;4.911562800E-1
3.697258983E1;1.304141641E0;1.150122643E0;5.850855708E-1
3.699089617E1;1.311016083E-1;2.271460533E0;1.341753840E0
3.700921386E1;-3.738026619E-1;4.251447678E0;1.888900280E0
3.702752587E1;-1.271484375E0;5.474802017E0;2.226911545E0
3.704584130E1;-8.610144854E-1;5.219266891E0;2.483410835E0
3.706414946E1;-1.061172843E0;5.139637470E0;1.693637252E0
3.708246123E1;-1.347722650E0;6.125070572E0;8.977892399E-1
3.710077294E1;-9.381761551E-1;5.978707790E0;1.063596487E0
3.711908349E1;-1.144359589E0;5.722608566E0;7.763080597E-1
3.713739434E1;-1.043369532E0;4.842377663E0;-5.689730644E-1
3.715570849E1;-5.165178776E-1;3.088641167E0;-2.832120895E0
3.717402025E1;4.395339489E-1;3.815937042E-1;-5.279234409E0
3.719233184E1;2.147461891E0;-2.667999268E0;-4.708204746E0
3.721064397E1;4.194755554E0;-6.293869019E0;-9.338271618E-1
3.722895580E1;4.316670895E-1;-8.610697746E0;-1.549561024E0
3.724726775E1;-1.650484800E-1;-6.470502853E0;-4.447642326E0
3.726557897E1;9.716628790E-1;-2.741584778E-1;-5.768940926E0
3.728389129E1;9.320098162E-1;1.643637657E0;-4.810586452E0
3.730220311E1;-1.002868176E0;-4.020729065E0;-2.705889702E0
3.732051616E1;-3.825505257E0;-8.839069366E0;3.709606171E0
3.733882634E1;-5.292376995E0;-5.958582878E0;9.792068481E0
3.735713872E1;-2.251142025E0;8.284606934E-1;2.513900280E0
3.737544732E1;-6.080731750E-1;3.226235867E0;7.579680681E-1
