"Time (s)";"Linear Acceleration x (m/s^2)";"Linear Acceleration y (m/s^2)";"Linear Acceleration z (m/s^2)"
1.493798540E-1;-2.859635353E-1;-1.943694353E-1;-8.674049377E-2
1.671121530E-1;1.553797722E-2;2.106225491E-2;4.530334473E-2
1.848343830E-1;-3.058195114E-3;-1.097452641E-1;2.668170929E-1
2.025565500E-1;-6.142377853E-3;-1.863110065E-1;4.104509354E-1
2.202831740E-1;7.130324841E-2;-2.208031416E-1;2.947511673E-1
2.379888630E-1;3.145810366E-1;-3.003617525E-1;-3.928909302E-1
2.557267780E-1;4.071377516E-1;-2.965414524E-1;-8.521413803E-1
2.734502270E-1;2.399702072E-1;-2.003571987E-1;-4.387540817E-1
2.911747150E-1;8.578670025E-2;-2.010167837E-1;1.221675873E-1
3.088984090E-1;-1.965399981E-1;-1.995985508E-1;2.017965317E-1
3.266134970E-1;-1.087926626E-1;-4.142498970E-2;2.576999664E-1
3.443459790E-1;-1.871750355E-1;-9.307754040E-2;3.561840057E-1
3.620699790E-1;-2.133411169E-1;6.733775139E-3;3.475818634E-1
3.797911700E-1;-1.994960308E-1;1.141073704E-1;3.605842590E-2
3.975084550E-1;-5.337369442E-2;5.241119862E-2;-5.764236450E-1
4.152274490E-1;4.840314388E-2;-2.235329151E-2;-5.155906677E-1
4.329662180E-1;-1.054732800E-1;8.912205696E-3;1.679210663E-1
4.506940630E-1;-3.998283744E-1;5.294132233E-2;3.886098862E-1
4.684104930E-1;-4.030048251E-1;1.296732426E-1;3.828849792E-1
4.861330280E-1;-2.740291953E-1;4.339027405E-2;-1.226501465E-1
5.038576980E-1;-8.767360449E-2;4.010200500E-3;-2.560567856E-1
5.215840160E-1;-6.103363633E-2;-1.796683073E-1;-1.305847168E-1
5.393045970E-1;2.565931380E-1;-1.932407618E-1;1.865348816E-1
5.570256660E-1;5.588807464E-1;-1.832395792E-1;2.174882889E-1
5.747503370E-1;3.087791502E-1;-3.919924498E-1;5.120019913E-1
5.924729930E-1;1.797259450E-1;-3.614968061E-1;6.380710602E-1
6.101975420E-1;1.540969312E-1;-1.877433062E-1;1.950006485E-1
6.279067700E-1;-1.594454050E-2;-1.880331039E-1;-4.113864899E-2
6.456405960E-1;4.673683643E-2;-3.416343927E-1;1.399221420E-1
6.633696000E-1;2.686051130E-1;-4.683177471E-1;1.538562775E-1
6.810765700E-1;3.624126911E-1;-3.710415363E-1;1.853713989E-1
6.988100300E-1;2.736332417E-1;-2.924345732E-1;8.280754089E-3
7.165274980E-1;1.719580889E-1;-3.487975597E-1;-2.337932587E-1
7.342643750E-1;2.122107744E-1;-3.703016043E-1;-3.412113190E-1
7.519862990E-1;2.068855762E-1;-2.912341356E-1;-3.100786209E-1
7.697096260E-1;2.029596567E-1;-2.874436378E-1;-1.493473053E-1
7.874199540E-1;2.088623047E-1;-3.122438192E-1;-5.429077148E-2
8.051523150E-1;2.977244854E-1;-3.801379204E-1;6.692314148E-2
8.228811960E-1;3.197672367E-1;-3.589936495E-1;-2.666091919E-2
8.406025100E-1;3.072074652E-1;-2.768967152E-1;-2.292404175E-1
8.583241280E-1;1.864519119E-1;-1.800105572E-1;-4.595108032E-1
8.760491040E-1;5.080461502E-3;-1.483937502E-1;-6.000785828E-1
8.937711500E-1;-6.052136421E-2;-1.809480190E-1;-5.414371490E-1
9.114992990E-1;1.179534197E-1;-2.617369890E-1;-3.951063156E-1
9.292195140E-1;2.353427410E-1;-3.010109663E-1;-2.452478409E-1
9.469385700E-1;2.816685438E-1;-2.523692846E-1;-2.582235336E-1
9.646603100E-1;-4.942941666E-2;-3.243948221E-1;3.303346634E-1
9.823898030E-1;-2.697515488E-1;2.328753471E-2;5.125665665E-1
1.000113374E0;-3.280977011E-1;-1.512229443E-1;6.936225891E-1
1.017836885E0;-1.587539911E-1;5.328142643E-2;-2.839479446E-1
1.035560518E0;-2.157986164E-1;-6.617689133E-2;-3.868827820E-1
1.053286226E0;4.921030998E-2;8.574485779E-2;-6.216087341E-1
1.071003572E0;-1.367723942E-1;-9.706914425E-2;-6.727333069E-1
1.088730684E0;-1.044071913E-1;-3.103256226E-3;-8.460903168E-2
1.106453157E0;-4.254391193E-1;-5.900907516E-2;3.744878769E-1
1.124179170E0;-3.255300522E-1;5.710542202E-2;6.030788422E-1
1.141902254E0;-3.045707941E-1;-5.221021175E-2;3.500461578E-1
1.159625459E0;-2.698036432E-1;4.092407227E-2;1.629667282E-1
1.177345308E0;-9.142708778E-2;6.501317024E-3;1.591215134E-1
1.195071443E0;-1.168191433E-1;8.217334747E-2;1.287231445E-1
1.212795870E0;-1.811610460E-1;2.181148529E-2;-7.631206512E-2
1.230520357E0;-9.837043285E-2;1.261556149E-2;-2.277269363E-1
1.248242098E0;2.623506784E-1;-1.450669765E-1;-6.171607971E-2
1.265965486E0;3.479198217E-1;-2.813758850E-1;2.905597687E-1
1.283689852E0;4.454898834E-2;-2.864353657E-1;5.743598938E-2
1.301411104E0;4.743623734E-2;-9.262466431E-2;-2.789707184E-1
1.319135713E0;-2.223886251E-1;-5.428028107E-2;-3.769083023E-1
1.336854402E0;-1.805657148E-1;3.532743454E-2;-1.380281448E-1
1.354583833E0;-2.425193787E-3;-4.643774033E-2;-5.107021332E-2
1.372302644E0;1.743396521E-1;-1.525620222E-1;-1.239557266E-1
1.390029573E0;-1.388227940E-2;-1.877924204E-1;-1.614627838E-1
1.407753084E0;-1.519668102E-1;-1.434345245E-1;-9.678649902E-2
1.425475007E0;-3.041093349E-1;-1.078481674E-1;-1.834363937E-1
1.443199861E0;-1.651465893E-2;-4.800617695E-2;-3.245048523E-1
1.460916231E0;2.386730909E-1;-1.842545271E-1;-3.349142075E-1
1.478644319E0;4.408905506E-1;-7.650303841E-2;-8.861265182E-1
1.496371553E0;9.263968468E-2;-2.978968620E-1;-4.370803833E-1
1.514091035E0;-1.330449581E-1;8.151054382E-3;-1.068820953E-1
1.531817171E0;-1.293588877E-1;1.346807480E-1;-3.091506958E-1
1.549540010E0;-1.431713104E-1;1.000812054E-1;-2.836542130E-1
1.567266756E0;-1.786860228E-1;5.581986904E-2;9.990692139E-2
1.584987764E0;8.424913883E-2;-2.218031883E-2;-6.409311295E-1
1.602710664E0;-2.640219927E-1;-1.486978531E-1;-2.831010818E-1
1.620433320E0;3.926401138E-1;1.096177101E-2;-1.505861282E-1
1.638158846E0;1.247694373E0;-1.194835901E-1;-1.522670746E0
1.655881624E0;-6.641149521E-4;-1.390719414E-2;-6.472263336E-1
1.673605806E0;3.538407087E-1;1.938239336E-1;-1.240574837E0
1.691326509E0;1.945199966E-1;3.159080744E-1;-1.543486595E0
1.709052645E0;-9.450531006E-2;5.119335651E-2;-1.401715279E0
1.726774080E0;6.123398542E-1;3.128684759E-1;-1.234169006E0
1.744494173E0;2.153170586E0;2.363038540E0;-1.157591820E0
1.762222017E0;1.027924895E0;-1.043289900E-1;-1.876473427E0
1.779947054E0;1.283128262E-1;-1.721716046E0;-1.713175297E0
1.797665925E0;2.084872723E-1;-1.797658205E0;-1.977112293E0
1.815392793E0;4.915907383E-1;-1.321409345E0;-2.875630379E0
1.833116182E0;7.275207043E-1;-1.020819306E0;-3.078241348E0
1.850840608E0;1.617922783E-1;-1.233444810E0;-2.397371292E0
1.868565889E0;1.469088316E0;-1.508156419E0;3.516653061E0
1.886287690E0;4.346055984E-1;-2.448956251E0;1.226072311E0
1.904008943E0;1.163551807E0;-1.396981478E0;1.295614243E-1
1.921734529E0;-1.643612146E0;-1.949108243E0;3.600374222E0
1.939456025E0;-1.758553505E0;-1.881998777E0;-2.704916000E0
1.957184297E0;-1.532022953E-1;-4.793968201E-1;-1.784033775E0
1.974902681E0;1.948966980E-1;1.106998920E-1;1.022240639E0
1.992628816E0;-1.899671555E-2;-3.534018993E-1;2.248536110E0
2.010339388E0;-1.635820866E-1;-5.969150066E-1;2.006008148E0
2.028074251E0;-7.244393826E-1;-3.387830257E-1;4.008083344E-1
2.045792940E0;-8.386132717E-1;1.460790634E-1;6.214714050E-2
2.063523347E0;-3.876965046E-1;6.417787075E-1;1.985464096E-1
2.081243135E0;2.391226292E-1;5.806140900E-1;-4.551382065E-1
2.098969392E0;1.213438511E-1;1.005207062E0;1.503147125E0
2.116679903E0;6.554632187E-1;7.457489967E-1;1.878675461E0
2.134418001E0;1.123944759E0;5.265347362E-1;1.479049683E0
2.152138338E0;5.654382706E-1;7.376103997E-1;5.358810425E-1
2.169858980E0;-1.859831810E-1;8.070063591E-1;-3.612518311E-3
2.187585176E0;-1.037751675E0;1.949210763E-1;-1.355806351E0
2.205309297E0;-1.497793198E0;-5.544469953E-1;-2.446667194E0
2.223036836E0;-3.537814617E-1;-3.668968081E-1;-2.507502079E0
2.240755831E0;6.297626495E-1;9.276624322E-1;-1.141215801E0
2.258479402E0;4.805188179E-1;1.351988435E0;-1.660804749E-1
2.276202669E0;-3.309659958E-1;1.033842564E0;-6.387481689E-1
2.293930147E0;-7.969307899E-1;-3.054948449E-1;-2.092740059E0
2.311647249E0;-6.527471542E-2;-9.550939798E-1;-2.592305183E0
2.329373201E0;9.161248207E-1;-4.029730558E-1;-1.455423832E0
2.347090120E0;4.921312332E-1;3.790197372E-1;-1.301727295E-1
2.364820101E0;-5.591964722E-1;-2.875961065E-1;-7.534170151E-2
2.382543428E0;-1.489513874E0;-8.384375572E-1;-8.682403564E-1
2.400269929E0;-1.048619270E0;-4.071598053E-1;-1.834581375E0
2.417986788E0;2.826309204E-1;7.342464924E-1;1.738486290E-1
2.435713777E0;8.704528809E-1;1.101120949E0;1.511583805E0
2.453436006E0;3.775038719E-1;8.569302559E-1;1.716809273E0
2.471162019E0;-9.412550926E-1;-4.455971718E-1;1.049296856E0
2.488883515E0;-1.499806881E0;-1.271373034E0;-4.333744049E-1
2.506604951E0;-8.475070000E-1;3.219156265E-1;-1.206176758E0
2.524329317E0;4.537682533E-1;1.433318377E0;-1.087321758E0
2.542054842E0;1.599209785E0;1.165239573E0;-2.847783566E-1
2.559777925E0;1.126916409E0;2.380576134E-1;-3.557348251E-2
2.577500520E0;9.764785767E-1;-2.904968262E-1;7.846803665E-1
2.595225130E0;2.101209641E0;-4.615283012E-1;2.286045074E0
2.612951631E0;3.425304890E0;-5.111389160E-1;3.088009834E0
2.630669161E0;4.164986134E0;-5.388784409E-2;3.101384163E0
2.648395540E0;4.830963612E0;4.864821434E-1;1.912095070E0
2.666119051E0;5.008823872E0;9.798474312E-1;2.356137037E-1
2.683825105E0;4.498374462E0;9.153838158E-1;-7.318867445E-1
2.701570039E0;3.144633770E0;1.642704010E-1;-1.078799725E0
2.719285798E0;1.244510651E0;-5.821113586E-1;-9.968473315E-1
2.737006990E0;-1.037964821E-1;-1.542396545E-1;-1.154382944E0
2.754735993E0;-7.269954681E-2;6.452727318E-1;-1.448509216E0
2.772463533E0;5.978703499E-1;3.048191071E-1;-2.516536951E0
2.790186311E0;2.491269112E-1;-2.363681793E-2;-3.185916424E0
2.807899874E0;-1.482324600E-1;-1.266028881E0;-2.200963974E0
2.825627473E0;9.908437729E-2;-1.638053894E0;-5.990295410E-1
2.843352632E0;4.974303246E-1;-2.298454285E0;5.976548195E-1
2.861070527E0;8.895096779E-1;-2.451991558E0;1.053164363E0
2.878803193E0;8.279662132E-1;-2.193718910E0;8.390754461E-1
2.896524202E0;1.206516266E0;-1.847539425E0;1.250724554E0
2.914245881E0;2.886685848E0;-1.249527454E0;2.676180840E0
2.931970918E0;3.090603352E0;-1.700797081E0;3.866680622E0
2.949694551E0;1.979987621E0;-1.735585690E0;2.190127611E0
2.967420015E0;6.971011162E-1;-1.697759151E0;-4.563567638E-1
2.985142549E0;-1.836433411E-1;-2.160198689E0;-2.934375763E0
3.002861238E0;1.592159271E-2;-2.229225636E0;-1.017946720E0
3.020588350E0;1.476125240E0;-9.467515945E-1;1.464166403E0
3.038312532E0;2.997323513E0;-4.422755241E-1;3.461671114E0
3.056036409E0;2.461047649E0;-5.987133980E-1;5.373655319E0
3.073759980E0;1.257157326E-1;-4.419393539E-1;-4.458382130E-1
3.091477449E0;-3.684144020E0;-5.019469261E-1;-9.608766556E0
3.109205477E0;1.821936607E0;6.225171089E-1;2.158049583E0
3.126918855E0;-1.349476337E0;1.768771648E0;-1.676619887E0
3.144647553E0;-1.762803555E0;-1.701450348E-2;-1.276456833E0
3.162376192E0;-5.408453941E-1;4.654531479E-1;-1.207088232E0
3.180097567E0;8.689165115E-2;2.252723932E0;-1.295017481E0
3.197824190E0;6.697883606E-1;1.732517481E0;4.647297382E0
3.215546297E0;-2.459747791E0;8.087301254E-1;1.379137993E0
3.233258577E0;-3.579640388E0;1.832818985E0;-1.339448452E0
3.250981722E0;-2.895085335E0;2.966779709E0;-4.458971977E0
3.268706941E0;-2.115602016E0;2.047592402E0;-2.218819618E0
3.286439180E0;-7.163429260E-1;1.456510067E0;-9.761493206E-1
3.304167513E0;-1.272369862E0;1.373941898E0;-1.386911869E0
3.321886201E0;-8.436183929E-1;1.261495590E0;-3.830854893E-1
3.339612215E0;-1.150469303E0;7.445807457E-1;-2.784626484E-1
3.357332796E0;-1.159672737E0;1.159498692E0;-7.514955997E-1
3.375057527E0;-2.340996742E0;6.569933891E-1;-8.046084642E-1
3.392776461E0;-4.065638542E0;-4.410524368E-1;-6.360127926E-1
3.410505586E0;-3.148339748E0;1.476578712E-1;-7.789577246E-1
3.428215547E0;-1.442191601E0;1.110582352E-1;-1.685478091E0
3.445952852E0;2.535452366E0;-1.808776855E-1;-6.547775269E-1
3.463671358E0;3.527172565E0;1.911371708E0;7.515497208E-1
3.481401093E0;-5.705409050E-1;3.526816845E0;4.417918205E0
3.499121980E0;9.437734604E0;-9.546523094E-1;-4.154276371E0
3.516840975E0;1.823959827E0;-1.673256874E0;-3.679862976E0
3.534572053E0;4.600918293E0;-7.810173035E-1;1.851179719E0
3.552294770E0;4.011425018E0;-1.725490570E0;-4.736547470E-1
3.570014802E0;2.000810146E0;-2.092733383E0;-6.809798479E-1
3.587739168E0;1.112588406E0;-1.427313805E0;-6.686961651E-1
3.605461580E0;2.023835182E0;3.352490425E0;4.018673897E-1
3.623190706E0;1.764716625E0;-1.324808121E0;-1.079559565E0
3.640909761E0;4.800534248E-1;-2.914819717E0;-1.736394644E0
3.658626740E0;1.262698174E-1;-1.208136559E0;-7.550643086E-1
3.676356905E0;6.380386353E-1;-1.927709579E-1;1.062478304E0
3.694069063E0;1.173837185E0;1.983627319E0;2.307279110E0
3.711806611E0;-4.809707165E0;-1.241489410E0;8.556588292E-1
3.729527071E0;-4.728469372E0;-2.079263687E0;-6.025868654E-1
3.747250582E0;8.687191010E-1;-1.004272461E0;3.486075997E-2
3.764970369E0;7.961382866E-1;-5.498886108E-3;1.453040361E0
3.782693819E0;-1.199052095E0;3.624534607E-1;2.349903136E-1
3.800419771E0;-1.358582973E0;-1.413085938E0;1.414569139E0
3.818145600E0;-1.693368912E0;-1.066244125E0;1.251938581E0
3.835867647E0;-1.287604094E0;-2.090482712E-1;9.534476995E-1
3.853592500E0;-2.936327457E-1;-4.061489105E-1;1.384707332E0
3.871303011E0;-1.189346790E0;-5.953350067E-1;1.611318588E0
3.889040620E0;-1.326433659E0;2.831420898E-1;7.761189938E-1
3.906762789E0;-1.201601267E0;1.158486843E0;5.900603533E-1
3.924484285E0;-1.597520351E0;8.267030716E-1;-1.386944056E-1
3.942208711E0;-1.431749582E0;1.225173950E0;2.168828249E-1
3.959928621E0;-5.944447517E-1;9.122233391E-1;-1.201671362E-1
3.977650850E0;-9.731311798E-1;1.674230576E0;4.140896797E-1
3.995366548E0;-9.688172340E-1;2.666153908E0;1.059685707E0
4.013102510E0;-8.093185425E-1;2.953131676E0;1.000214100E0
4.030826631E0;-1.503408909E0;2.995761871E0;9.789972305E-1
4.048550447E0;-9.348859787E-1;2.708394051E0;4.207111597E-1
4.066267305E0;-1.455519199E-1;1.570828438E0;2.844797373E-1
4.083984590E0;3.657159805E-1;4.430799484E-1;-7.329595089E-1
4.101722871E0;1.032943726E0;-6.018285751E-1;-2.346381426E0
4.119444795E0;2.726034164E0;-3.909587860E-1;-3.347363472E0
4.137166902E0;2.872552872E0;-1.605376244E0;-2.200833321E0
4.154890352E0;2.302239895E0;-2.114398003E0;-3.358033657E0
4.172602083E0;2.084294319E0;-9.585027695E-1;-4.234581947E0
4.190339387E0;1.886008263E0;4.994149208E-1;-3.226037741E0
4.208060701E0;1.516273499E0;1.262396812E0;-1.524935961E0
4.225779817E0;5.416378975E-1;9.495620728E-1;3.300338984E-1
4.243508699E0;-5.668182373E-1;-4.729366302E-1;2.108819962E0
4.261229708E0;1.877098083E-1;-1.079648018E0;3.359909058E0
4.278955720E0;-2.595834732E-1;-1.408504486E0;2.964694977E0
4.296672578E0;-2.764676571E0;-2.765567780E0;-6.388032436E-2
4.314399691E0;-3.627671480E0;-4.476170540E0;-6.437005997E0
4.332126192E0;-1.183045864E0;-2.279392242E0;-1.892329454E-1
4.349838594E0;-3.531129360E-1;1.921552181E0;1.936978579E0
4.367573885E0;-2.565392256E0;2.076316833E0;7.426647186E0
4.385296968E0;-2.566656590E0;3.435001850E0;6.765035629E0
4.403019930E0;-2.007241249E0;4.819892406E0;2.016717434E0
4.420743562E0;-1.209872246E0;4.700515747E0;-3.915278912E-1
4.438463594E0;-6.964182854E-1;1.847419262E0;7.140915394E-1
4.456190339E0;-1.276318073E0;-1.211031914E0;2.086589336E0
4.473914034E0;-1.865996599E0;-3.265501022E0;1.247833014E0
4.491630220E0;-6.614897251E-1;-3.551256180E0;-7.546601295E-1
4.509362702E0;5.908708572E-1;-1.513562202E0;-5.961798429E-1
4.527082918E0;5.715336800E-1;-6.553373337E-1;1.281676888E-1
4.544811617E0;1.262225151E0;-6.036682129E-1;8.536159992E-1
4.562530184E0;1.711257696E0;-1.342906952E-1;1.145829082E0
4.580252168E0;1.845233440E0;1.095962524E-2;5.723404884E-1
4.597976045E0;1.596120596E0;-3.954658508E-1;7.122317553E-1
4.615703279E0;1.390309811E0;-1.078929901E-1;-2.555299401E-1
4.633425813E0;4.738991261E-1;7.046937943E-1;-8.965732455E-1
4.651147432E0;-7.526915073E-1;8.184871674E-1;-1.221951604E0
4.668859651E0;-1.323212862E0;4.869880676E-1;-9.314661026E-1
4.686595735E0;-1.087783933E0;-9.700527191E-1;-8.232392073E-1
4.704319123E0;4.585409164E-2;-1.968640327E0;-1.294106007E0
4.722041353E0;7.734293938E-1;4.644870758E-2;-1.061935067E0
4.739760164E0;9.210619926E-1;5.324182510E-1;-7.084659338E-1
4.757489534E0;1.148742676E0;5.254745483E-3;-7.564091682E-1
4.775215058E0;9.959070683E-1;-6.701402664E-1;-4.089313149E-1
4.792936677E0;3.624113798E-1;-1.134252548E0;-1.026540518E0
4.810654329E0;-2.347670794E-1;-1.272280693E0;-1.918470144E0
4.828376741E0;-3.685921431E-1;-1.639694214E0;-2.244455338E0
4.846105684E0;3.725818396E-1;-1.254852295E0;-2.572729588E0
4.863829256E0;2.415000916E0;-1.627393723E0;-1.820396662E0
4.881550081E0;4.542395592E0;-2.046255112E0;-2.452293873E0
4.899277070E0;4.697610855E0;-1.934379578E0;-2.650828838E0
4.916988069E0;3.341987610E0;-2.419065475E0;-2.303101778E0
4.934725435E0;2.159474373E0;-2.689248085E0;-2.403208733E0
4.952445528E0;1.405714631E0;-2.221199036E0;-2.969039440E0
4.970168489E0;2.010837793E-1;-1.125322342E0;-1.371218681E0
4.987893526E0;-1.565571904E0;-8.052005768E-1;-6.055425406E-1
5.005616182E0;-1.639865875E0;-7.547178268E-1;2.986973047E0
5.023337556E0;2.026126385E-1;-1.103003502E0;3.846192598E0
5.041057466E0;1.528589964E0;-1.732014656E0;1.059532642E0
5.058786104E0;5.293674469E-1;-2.081665993E0;-7.489615679E-1
5.076511202E0;-9.021153450E-1;-2.867248535E0;8.592779636E-1
5.094232820E0;-1.428505301E0;-2.196006775E0;2.104370356E0
5.111957307E0;-1.497445941E0;-1.776712418E0;2.336278915E0
5.129677461E0;-1.099468708E0;-4.546947479E-1;1.887129068E0
5.147405000E0;-1.402274847E0;5.319843292E-1;1.505706668E0
5.165125398E0;-1.573112726E0;1.707329750E0;2.401624203E0
5.182849885E0;-2.294864655E0;2.389472485E0;2.274039268E0
5.200575533E0;-2.372130632E0;2.565100670E0;2.195251703E0
5.218300019E0;-1.555901289E0;1.516430855E0;3.279774904E0
5.236025239E0;-5.086942911E-1;1.296790123E0;4.780623436E0
5.253746797E0;-1.089272499E0;1.660584450E0;4.161118507E0
5.271467988E0;-1.813819289E0;2.159065247E0;2.921161652E0
5.289192598E0;-1.834673166E0;2.647994995E0;1.868678331E0
5.306913973E0;-1.335324049E0;3.077294827E0;1.506934643E0
5.324637850E0;-3.903908730E-1;3.055114746E0;1.058970690E0
5.342363252E0;4.872794151E-1;2.892786503E0;3.599510193E-1
5.360086641E0;9.045202732E-1;2.513336182E0;-9.361224174E-1
5.377810213E0;1.558753967E0;9.626417160E-1;-2.911885262E0
5.395535859E0;2.171528339E0;-1.679939270E0;-5.883867264E0
5.413256929E0;2.261412382E0;-4.172353745E0;-6.968888283E0
5.430980562E0;1.888628721E0;-4.608472824E0;-4.781884193E0
5.448704012E0;1.231146812E0;-2.510277748E0;-3.993469238E0
5.466428621E0;2.105174065E-1;1.039183140E0;-3.875448227E0
5.484144014E0;1.712119579E-2;3.587080956E0;-2.015452385E0
5.501874177E0;-8.840839267E-1;1.502780914E0;5.843505859E-1
5.519597811E0;-3.758907318E0;-3.011474609E0;3.863465071E0
5.537320772E0;-3.321335793E0;-4.497729301E0;3.798447371E0
5.555044954E0;-7.209999561E-1;-7.193913460E0;2.630660057E0
5.572755403E0;-2.821340322E0;-8.646005630E0;-4.633976936E0
5.590494845E0;-5.047785759E0;-2.836027145E-1;2.008349657E0
5.608216524E0;-5.429402351E0;6.883512974E0;8.106651306E0
5.625939546E0;-2.104073286E0;5.975744724E0;5.799801826E0
5.643657381E0;4.126442909E0;5.110101700E-1;4.164588451E0
5.661388155E0;6.320161819E0;-3.570256233E0;5.659570694E0
5.679112947E0;5.113687515E0;-2.931749344E0;4.696266174E0
5.696828340E0;1.320964575E0;-4.394512177E-1;-3.063455582E0
5.714548921E0;-3.108300924E0;5.104904175E-1;-2.361165524E0
5.732280732E0;-3.209125757E0;1.919384003E0;4.294624329E-1
5.750003877E0;-1.527693152E0;1.961802483E0;1.345830321E0
5.767727754E0;9.286332130E-2;1.354977608E0;1.002137184E0
5.785448884E0;1.005867124E0;9.871215820E-1;-3.262795210E-1
5.803176180E0;1.289240599E0;9.348812103E-1;-2.204245329E-1
5.820898104E0;1.175613403E0;9.568681717E-1;-6.616008282E-2
5.838608797E0;5.765593052E-1;7.403202057E-1;-3.876202703E-1
5.856344270E0;1.777424812E-1;7.980623245E-1;-3.816741109E-1
5.874067354E0;1.425790787E-1;1.322722435E0;-8.411220908E-1
5.891791963E0;8.823668957E-2;1.141696930E0;-5.766729116E-1
5.909514070E0;-2.724149227E-1;1.952216148E0;3.520171642E-1
5.927240450E0;-1.056941748E0;-7.831764221E-2;3.170972466E-1
5.944960420E0;-7.042102814E-1;-5.073165894E-1;-8.038679957E-1
5.962693086E0;-3.681038618E-1;-4.770441055E-1;-1.477378607E0
5.980410493E0;1.687726974E-1;-1.617641449E-1;-1.718380451E0
5.998120333E0;7.664068937E-1;-7.478580475E-1;-1.196303129E0
6.015848115E0;1.021655560E0;-1.878001213E0;-1.726622581E0
6.033580781E0;2.599304676E0;-7.709140778E-1;-1.137064576E0
6.051292207E0;3.145650625E0;-6.702251434E-1;-1.700753331E0
6.069025667E0;2.449707985E0;-1.384178162E0;-3.502331972E0
6.086737520E0;1.704640746E0;-1.332215309E0;-4.177413464E0
6.104471040E0;2.377309561E0;-1.498581886E0;-4.568971157E0
6.122196199E0;4.238245964E0;-2.178628922E0;-3.922382355E0
6.139919649E0;4.578017712E0;-2.309553146E0;-5.125395298E0
6.157638399E0;2.929783821E0;-1.962799072E0;-4.466185093E0
6.175367647E0;1.379061103E0;-2.034908295E0;-3.454108000E0
6.193087068E0;6.580219269E-1;-1.404917717E0;-2.414206982E0
6.210813448E0;-7.282614708E-3;-2.210844994E0;4.373034000E0
6.228532198E0;3.263937235E-1;-3.955367088E0;5.979930401E0
6.246263155E0;1.102182627E0;-5.951532364E0;-3.541486263E-1
6.263984102E0;-1.818090677E-1;-6.199877739E0;-1.487450004E0
6.281706697E0;-2.804743052E0;-5.702441216E0;9.355369210E-1
6.299429719E0;-4.216150284E0;-3.329387665E0;2.950323105E0
6.317145479E0;-3.879901409E0;-4.289207458E-1;1.871677279E0
6.334881136E0;-2.541819096E0;4.964570999E-1;2.312767744E0
6.352601473E0;-7.410144806E-2;1.312387466E0;2.470747709E0
6.370323213E0;2.173573494E0;1.458019257E0;3.303045988E0
6.388044588E0;2.333782434E0;1.450085640E0;4.491997719E0
6.405767549E0;6.351177692E-1;1.600287437E0;4.439760208E0
6.423496554E0;-2.020147085E0;2.362838745E0;5.402569771E0
6.441219819E0;-3.523938656E0;3.302553177E0;6.119841099E0
6.458940401E0;-3.307241201E0;4.445672512E0;6.464861393E0
6.476654329E0;-2.723240852E0;5.044297218E0;5.518171310E0
6.494376436E0;-1.973470926E0;4.761595726E0;3.482270718E0
6.512102083E0;-7.347483635E-1;3.889509201E0;2.181424141E0
6.529837190E0;3.684099913E-1;2.454579830E0;8.987126350E-1
6.547556550E0;1.298557520E-1;1.545870781E0;-2.119396210E0
6.565284028E0;-2.580399513E-1;-3.154668808E-1;-5.972981453E0
6.583006563E0;1.666443825E0;-3.504589081E0;-9.880460739E0
6.600734162E0;2.290035486E0;-7.868412971E0;-4.383187294E0
6.618452363E0;2.458055735E0;-7.841663361E0;-5.072671890E0
6.636173249E0;1.238751769E0;-1.308239937E0;-6.072141647E0
6.653900545E0;1.495238543E0;5.526780128E0;-1.407423496E0
6.671628511E0;-5.052845478E-1;7.013830662E0;1.682132006E0
6.689347444E0;-5.098955631E0;4.707221985E-1;5.826081276E0
6.707071138E0;-6.368942261E0;-2.857700348E0;1.103407192E1
6.724793794E0;-2.378863335E0;-4.340351105E0;6.567459583E0
6.742520234E0;-1.228201628E0;-1.120765400E1;-6.353533745E0
6.760241609E0;-2.726834536E0;-1.030137730E1;-7.674438953E0
6.777964876E0;-2.916981220E0;2.997211933E0;7.447110176E0
6.795693086E0;-3.018799782E0;8.915812492E0;7.901364803E0
6.813414827E0;4.217715263E-1;3.973186493E0;3.993533373E0
6.831135469E0;5.301461697E0;-1.129226685E0;2.947623253E0
6.848858858E0;6.593017578E0;-2.951726913E0;5.287103653E0
6.866582247E0;4.517386436E0;-1.089604378E0;1.752243161E0
6.884296358E0;-7.673245668E-1;1.219017029E0;-2.004259109E0
6.902029329E0;-4.220606327E0;2.326555729E0;-1.574765205E0
6.919751436E0;-2.832464695E0;2.492131710E0;4.621928930E-2
6.937473299E0;-6.361225843E-1;1.356626511E0;5.614835024E-1
6.955200960E0;8.045150042E-1;6.014184952E-1;1.692300141E-1
6.972913790E0;1.343207955E0;6.554899216E-1;4.379363656E-1
6.990643221E0;1.112454414E0;1.003459930E0;9.522413462E-2
7.008358614E0;1.021268010E0;1.548080444E0;-5.690314174E-1
7.026091646E0;5.310423374E-1;1.229797363E0;-4.926336408E-1
7.043817049E0;1.235952377E-1;5.310525894E-1;-5.189999938E-1
7.061531343E0;-4.461110234E-1;-5.768108368E-2;-1.076390505E0
7.079265962E0;-9.610370398E-1;-8.467378616E-1;-1.575926304E0
7.096998323E0;-4.806406498E-1;-1.249175072E0;-2.932908058E0
7.114711214E0;6.666159630E-1;-6.015281677E-1;-3.188392162E0
7.132433504E0;1.730006933E0;-6.219949722E-1;-3.142900944E0
7.150142549E0;2.261539221E0;-7.786846161E-1;-2.013235331E0
7.167885774E0;2.743003368E0;-1.067432404E0;-2.615688324E0
7.185604830E0;2.765970707E0;-1.642817497E0;-3.382556915E0
7.203328889E0;4.064611793E-1;-1.897405624E0;-4.548131466E0
7.221051912E0;-1.712922156E-1;-1.816625595E0;-6.814608574E0
7.238775057E0;4.086163044E0;-2.379672050E0;-4.761169434E0
7.256500215E0;8.064082146E0;-2.457776070E0;-4.452048302E0
7.274222444E0;6.858063698E0;-1.662994385E0;-3.948443890E0
7.291942048E0;4.163944244E0;-1.520043373E0;-3.004307270E0
7.309665987E0;1.918003559E0;-2.397967339E0;1.205163479E0
7.327380220E0;6.560967565E-1;-4.860849380E0;6.844861984E0
7.345117219E0;-2.490828037E-1;-7.221355438E0;1.533650517E0
7.362835115E0;-3.945002556E-1;-7.561905861E0;-2.320689678E0
7.380564485E0;-1.839162111E0;-6.755449295E0;9.122548699E-1
7.398287934E0;-3.067341805E0;-4.680521965E0;3.204307556E0
7.416011567E0;-2.929987431E0;-1.930352211E0;2.414656162E0
7.433728975E0;-2.040975094E0;-2.419824600E-1;1.600858688E0
7.451457490E0;-1.051553965E0;6.716566086E-1;3.288704634E0
7.469180635E0;8.497742414E-1;2.003599167E0;3.467399120E0
7.486900788E0;2.231709957E0;2.463172913E0;5.054279327E0
7.504630525E0;1.464038730E0;2.722901821E0;5.846662045E0
7.522352266E0;-8.930621147E-1;3.257348061E0;6.676723480E0
7.540074617E0;-2.911390305E0;4.211496353E0;7.724020004E0
7.557798250E0;-3.034300089E0;5.072533131E0;7.766833305E0
7.575521700E0;-2.242177248E0;5.775108337E0;7.285105228E0
7.593243074E0;-1.740110278E0;5.306537151E0;5.180125713E0
7.610968843E0;-1.167734146E0;4.423069954E0;2.133382797E0
7.628684236E0;1.440283060E-1;2.793371677E0;1.193431377E0
7.646417024E0;1.046305299E-1;-5.500316620E-2;-8.250689507E-1
7.664140352E0;-2.583121538E0;-1.402543068E0;-5.500582695E0
7.681860811E0;-1.745213747E0;-4.637928009E0;-1.266919899E1
7.699586153E0;2.611620903E0;-9.820962906E0;-8.060771942E0
7.717309236E0;4.862913132E0;-8.354029655E0;-3.668377399E0
7.735049592E0;2.566491365E0;-4.443721771E-1;-8.177703857E0
7.752756807E0;3.245134592E0;6.956757545E0;-3.689762592E0
7.770479952E0;1.607370853E0;3.003034115E0;6.564230442E0
7.788204438E0;-3.908218145E0;-2.181625366E0;9.401535034E0
7.805916719E0;-4.022336960E0;-3.655831337E0;7.282427788E0
7.823646516E0;-4.750111580E0;-8.623465538E0;-4.925225258E0
7.841373873E0;-7.906002998E0;-8.540236473E0;-2.796127558E0
7.859094575E0;-5.435285091E0;2.445765495E0;8.053455353E0
7.876817903E0;-1.045828819E0;8.181214333E0;8.681328773E0
7.894542940E0;5.029200554E0;3.417644978E0;6.066158772E0
7.912270539E0;7.427443504E0;-1.726298332E0;5.287837982E0
7.929991487E0;5.803223610E0;-3.810280800E0;3.307143211E0
7.947713532E0;3.068741798E0;-1.875563622E0;-2.506381750E0
7.965437349E0;-8.071621656E-1;7.503776550E-1;3.679990768E-3
7.983150301E0;-3.507002354E0;2.223170280E0;1.563463211E0
8.000885347E0;-3.701429129E0;2.546705246E0;1.355068803E0
8.018610262E0;-2.125910759E0;1.917158127E0;4.344223738E-1
8.036325655E0;1.943132877E-1;1.422362328E0;-2.027130127E-1
8.054056063E0;1.667133927E0;1.056107521E0;-3.828522563E-1
8.071779207E0;1.436570406E0;9.478693008E-1;-4.906233251E-1
8.089505036E0;1.012578011E0;1.203009605E0;-7.635049224E-1
8.107226534E0;9.599881172E-1;1.423367500E0;-4.636092484E-1
8.124949678E0;8.148485422E-1;1.009566307E0;-7.345567942E-1
8.142669649E0;-3.400836587E-1;1.054563522E-1;-1.654156923E0
8.160395357E0;-1.558292031E0;-4.239807129E-1;-3.080437183E0
8.178120272E0;-9.168890119E-1;-4.330787659E-1;-3.994122505E0
8.195843782E0;1.183749914E0;-4.469461441E-1;-3.207242489E0
8.213567964E0;2.276834011E0;-1.231273651E0;-2.065790653E0
8.231292939E0;2.650201797E0;-1.308847427E0;-1.297405481E0
8.249011262E0;3.829460621E0;-1.804807663E0;-3.728363514E0
8.266736482E0;2.746805429E0;-2.106115341E0;-5.179944992E0
8.284454927E0;2.173862219E0;-3.131439209E0;-5.945269108E0
8.302187959E0;5.032147408E0;-4.663340569E0;-4.903053761E0
8.319908113E0;6.980201721E0;-4.586767197E0;-4.133411407E0
8.337626131E0;3.655141830E0;-3.851773262E0;-4.467577457E0
8.355355196E0;-4.987740219E-1;-1.863504410E0;-4.020655632E0
8.373071993E0;-1.859355927E0;-1.828139305E0;3.698768377E0
8.390804780E0;-9.173802137E-1;-4.458151817E0;5.674739838E0
8.408520723E0;1.382347584E0;-7.430121422E0;-1.212332129E0
8.426249056E0;4.543770552E-1;-6.779840469E0;-1.141736150E0
8.443973360E0;-2.526387215E0;-5.306557655E0;9.442052841E-1
8.461688996E0;-3.294181585E0;-3.076988220E0;2.557425261E0
8.479418672E0;-1.971857071E0;-1.929473877E-1;2.008835554E0
8.497142977E0;-4.652516842E-1;1.374107361E0;2.585608006E0
8.514867342E0;3.896787167E-1;2.487434387E0;2.915225744E0
8.532589937E0;1.638868093E0;2.941772461E0;3.944832087E0
8.550298127E0;1.451572061E0;2.792960644E0;5.031652451E0
8.568035737E0;8.260023594E-2;2.894040108E0;5.815052986E0
8.585761385E0;-1.847225189E0;3.117668629E0;6.645804882E0
8.603484773E0;-2.997572899E0;4.098855972E0;7.533263206E0
8.621207552E0;-2.654330730E0;5.061306000E0;7.398644924E0
8.638930879E0;-1.632680178E0;5.312604427E0;6.535478115E0
8.656644075E0;-1.156335354E0;5.033024311E0;4.638135910E0
8.674377962E0;-1.081245780E0;4.340549946E0;2.013128996E0
8.692101290E0;-5.469191074E-2;3.046545982E0;-3.528804779E-1
8.709820284E0;1.045010805E0;1.492389679E0;-2.146256924E0
8.727546297E0;5.174716711E-1;-2.224195480E0;-8.604961395E0
8.745270235E0;4.643127322E-1;-7.744400978E0;-1.380852890E1
8.762996431E0;2.861016393E-1;-1.240374470E1;-6.771908760E0
8.780714083E0;9.577535987E-1;-7.149199486E0;-3.015568733E0
8.798442049E0;1.489949822E-1;1.712363720E0;-6.325020313E0
8.816162752E0;-6.311738491E-2;6.999242306E0;-2.845661640E0
8.833889314E0;-4.121639252E0;5.831775665E-1;2.257144690E0
8.851613313E0;-6.940322399E0;-4.809191704E0;9.450771332E0
8.869337129E0;-4.751044750E0;-8.179471016E0;1.139821815E1
8.887060030E0;-2.220617771E0;-1.032660580E1;-6.165111542E0
8.904781831E0;-3.649826050E0;-2.186976433E0;-3.110170364E0
8.922506746E0;-2.569238663E0;1.051641560E1;1.437722015E1
8.940229280E0;2.591596842E-1;8.260635376E0;5.147607327E0
8.957955538E0;6.659643650E0;-8.273801804E-1;4.671672344E0
8.975673067E0;8.867096901E0;-5.964221001E0;7.110021591E0
8.993398225E0;6.501055241E0;-3.678716660E0;-2.702138424E-1
9.011125215E0;-7.708978653E-2;3.204479218E-1;-2.511529684E0
9.028843904E0;-3.688262224E0;2.229615688E0;1.762732983E0
9.046572053E0;-4.073557854E0;2.394124031E0;1.489512205E0
9.064295869E0;-3.213772297E0;1.680081367E0;1.501329660E0
9.082014620E0;-1.366793871E0;1.178380966E0;9.694743156E-2
9.099741609E0;6.996269226E-1;1.023567200E0;3.561236858E-1
9.117463838E0;1.618781924E0;7.283792496E-1;4.042147994E-1
9.135189851E0;1.451418281E0;8.303346634E-1;-4.380378425E-1
9.152910310E0;8.328210115E-1;1.090331078E0;-5.872761011E-1
9.170631563E0;6.309597492E-1;1.323859215E0;-3.758312464E-1
9.188358980E0;6.299893260E-1;8.180131912E-1;-7.958829403E-1
9.206082430E0;9.919023514E-2;-3.447875977E-1;-1.772603631E0
9.223800508E0;1.920025349E-1;-1.212811470E0;-3.484567165E0
9.241528291E0;1.763958216E0;-4.239082336E-3;-3.731105328E0
9.259253084E0;2.676362038E0;5.989065170E-1;-3.644679785E0
9.276972078E0;2.753064632E0;-1.104140282E0;-2.923087597E0
9.294703767E0;2.902925730E0;-2.342616081E0;-3.763393402E0
9.312422395E0;3.940481901E0;-2.375308037E0;-4.925990105E0
9.330136019E0;3.937064648E0;-2.029255867E0;-5.893953323E0
9.347870333E0;2.704721212E0;-2.486916542E0;-7.299975395E0
9.365595430E0;4.099542618E0;-3.153470993E0;-5.977822304E0
9.383310700E0;5.635715961E0;-2.993981361E0;-4.407657623E0
9.401040926E0;4.053367138E0;-3.256844521E0;-4.032662868E0
9.418764559E0;2.438702106E0;-2.809958458E0;9.252859354E-1
9.436490449E0;1.998585582E0;-4.279166222E0;8.409106255E0
9.454206697E0;4.774687290E-1;-7.117650032E0;2.804659367E0
9.471934969E0;-3.159385324E-1;-6.994836807E0;-1.615737438E0
9.489653780E0;-3.487869263E0;-6.622556686E0;5.126655102E-2
9.507385896E0;-4.981521606E0;-4.893407822E0;2.690925121E0
9.525105928E0;-4.477264881E0;-2.213845253E0;2.975381613E0
9.542829073E0;-2.825767517E0;-6.807355881E-1;1.788578629E0
9.560549470E0;-9.284918904E-1;4.214801788E-1;2.160785198E0
9.578276765E0;1.597757339E0;1.742996216E0;2.420575142E0
9.595981722E0;3.882929564E0;1.858719349E0;4.435529709E0
9.613723177E0;2.965921879E0;2.102262974E0;5.500266552E0
9.631445589E0;-2.395491600E-1;3.237126350E0;7.294329643E0
9.649168977E0;-3.017842531E0;4.659926414E0;8.386758804E0
9.666888643E0;-4.175425529E0;5.251048088E0;8.019231796E0
9.684611177E0;-3.051545620E0;5.620565414E0;7.265902519E0
9.702342195E0;-1.930738807E0;5.704394341E0;6.062819958E0
9.720053255E0;-1.300150156E0;5.585509777E0;4.179366589E0
9.737775239E0;-4.476279020E-1;4.698803425E0;1.825166941E0
9.755499605E0;8.763926625E-1;2.821704865E0;-7.643928528E-1
9.773234346E0;1.822563410E-1;-1.245443344E0;-5.122316360E0
9.790959017E0;-1.022462606E0;-5.782234192E0;-1.195635128E1
9.808678498E0;-1.985730886E0;-1.100252438E1;-9.474014282E0
9.826401033E0;3.562693596E-1;-8.810378075E0;-3.238415718E0
9.844128389E0;1.206345081E0;-1.924487114E0;-5.045526505E0
9.861852938E0;-2.513023019E-1;3.055985451E0;-5.412255287E0
9.879576631E0;-1.346651077E0;8.577766418E-1;-7.441844940E-1
9.897300202E0;-1.952193379E0;-1.933294296E0;3.730029106E0
9.915024141E0;-8.252449632E-1;-3.811888695E0;9.602600098E0
9.932747041E0;-8.363360763E-1;-5.881763458E0;7.571652889E0
9.950466524E0;-6.506422997E0;-5.654855728E0;-4.732791901E0
9.968192842E0;-6.259418488E0;2.386989117E0;3.184384823E0
9.985915376E0;-2.822676659E0;6.383854866E0;6.783815384E0
1.000363657E1;3.551636696E0;3.741515636E0;7.497335911E0
1.002136350E1;7.008792400E0;-1.916013718E0;5.163863659E0
1.003908682E1;6.743936062E0;-3.966642380E0;3.605350971E0
1.005680612E1;4.767899513E0;-1.197411537E0;-1.745975018E-1
1.007453494E1;1.312513947E-1;1.548727989E0;-7.376666069E-1
1.009225717E1;-3.128602982E0;2.718664169E0;3.626431227E-1
1.010998233E1;-3.504287958E0;2.554746628E0;4.134144783E-1
1.012770456E1;-2.569769144E0;1.848212242E0;3.646824360E-1
1.014542764E1;-8.248223662E-1;1.402241707E0;1.608819962E-1
1.016313962E1;7.242204547E-1;7.143630981E-1;-3.286139369E-1
1.018087491E1;1.846016049E0;8.037052155E-1;-6.316664815E-1
1.019859836E1;1.747788787E0;1.083882332E0;-9.995086789E-1
1.021632285E1;1.296761274E0;1.330703735E0;-9.806783199E-1
1.023403415E1;9.047036767E-1;1.196187019E0;-1.302346706E0
1.025176169E1;9.409338236E-2;2.497501373E-1;-1.914099693E0
1.026949368E1;-8.750063777E-1;-1.141598701E0;-2.760723829E0
1.028721585E1;-7.367679477E-1;-1.780274391E0;-2.850271225E0
1.030493765E1;2.859138846E-1;-4.403753281E-1;-3.229728699E0
1.032265787E1;1.680863500E-1;-2.843475342E-1;-2.702083588E0
1.034038626E1;1.054304004E0;-1.458136559E0;-2.201728821E0
1.035810629E1;3.065502167E0;-1.670099258E0;-2.553200722E0
1.037583328E1;5.465544701E0;-1.369481087E0;-3.157954693E0
1.039355753E1;5.066207409E0;-1.205633163E0;-5.097083092E0
1.041128134E1;2.835148335E0;-1.816588402E0;-6.633775711E0
1.042900022E1;3.954628706E0;-3.454211235E0;-5.233940601E0
1.044672922E1;5.433192253E0;-3.734315872E0;-5.441885948E0
1.046444974E1;3.045295954E0;-3.239338875E0;-4.758299828E0
1.048217124E1;1.661592603E0;-2.105294228E0;-3.775571108E0
1.049989932E1;8.327732980E-2;-1.648823738E0;1.945882201E0
1.051761008E1;-1.169594824E-1;-4.117265701E0;7.414288521E0
1.053534659E1;-6.458247900E-1;-6.972098351E0;1.079528570E0
1.055306833E1;-1.282622933E0;-7.549526215E0;-1.833315372E0
1.057079001E1;-3.171411037E0;-6.865698814E0;1.235889196E-1
1.058851395E1;-3.564579487E0;-4.213196754E0;2.785231829E0
1.060623868E1;-2.602117538E0;-1.099798203E0;1.991444588E0
1.062396237E1;-1.413075089E0;3.939723969E-1;1.760604262E0
1.064169345E1;4.288126230E-1;1.553849697E0;1.809922218E0
1.065941324E1;2.327096939E0;2.064085484E0;3.361664772E0
1.067713297E1;2.968356609E0;2.392572403E0;4.859783173E0
1.069485636E1;1.403231859E0;3.160851479E0;5.288072586E0
1.071258084E1;-8.944697976E-1;4.072273254E0;6.998524189E0
1.073029978E1;-3.193211555E0;4.579315186E0;7.727078438E0
1.074802664E1;-3.126799107E0;5.174595356E0;7.799040794E0
1.076575040E1;-1.842197657E0;5.631291389E0;7.439760208E0
1.078347690E1;-1.003345966E0;5.474082470E0;5.959206104E0
1.080119742E1;-7.092878222E-1;4.802197456E0;3.336173296E0
1.081892087E1;5.618754625E-1;3.660808086E0;8.650541306E-2
1.083664255E1;1.633599997E0;1.286332130E0;-4.301679611E0
1.085436911E1;6.323646307E-1;-3.042414665E0;-7.873642921E0
1.087208945E1;-1.653486252E0;-7.680270195E0;-1.262291431E1
1.088981662E1;-3.412722349E0;-1.058877087E1;-8.376959801E0
1.090753830E1;-6.611672640E-1;-5.246646881E0;-4.326864243E0
1.092526639E1;7.838650048E-2;1.276710510E0;-5.525223732E0
1.094298557E1;-1.405197978E0;5.960058212E0;-5.689131737E0
1.096070725E1;-4.558787346E0;3.324018478E0;2.869113922E0
1.097843143E1;-5.968505859E0;-3.181951523E0;1.496922874E1
1.099614530E1;-3.792348862E0;-6.983528137E0;1.133593655E1
1.101387943E1;-6.792300940E-1;-1.485978508E1;-1.434735966E1
1.103160306E1;-1.069773674E0;-5.878974915E0;4.323301315E0
1.104932468E1;9.504139423E-1;1.009124088E1;1.272659397E1
1.106705100E1;3.024347782E0;1.004934597E1;7.141396999E0
1.108477671E1;4.183608055E0;-1.548280716E-1;6.112798214E0
1.110248746E1;4.241309166E0;-4.934426308E0;2.381635427E0
1.112022043E1;4.508033752E0;-3.789587021E0;-2.640246391E0
1.113794211E1;8.692006469E-1;-4.895877838E-1;5.785796642E-1
1.115566593E1;-2.609730721E0;2.290046215E0;1.019713044E0
1.117337906E1;-3.119328976E0;3.130277634E0;2.716675997E-1
1.119111722E1;-1.663685799E0;2.806854248E0;6.452010274E-1
1.120883908E1;-3.074019551E-1;2.145372391E0;1.540834904E-1
1.122655857E1;6.585157514E-1;1.320279121E0;7.416290045E-2
1.124428598E1;1.203922749E0;1.005989075E0;6.801865995E-2
1.126200730E1;1.227838516E0;1.082911491E0;-3.256616592E-1
1.127973312E1;8.052396178E-1;1.224479675E0;-6.190350652E-1
1.129745474E1;-1.529769301E-1;6.497344971E-1;-8.606460094E-1
1.131518051E1;-7.184531689E-1;-4.677772522E-2;-2.053604126E0
1.133290286E1;-4.904943407E-1;-5.707855225E-1;-3.243602276E0
1.135063040E1;2.112670541E-1;-9.691486359E-1;-4.169648170E0
1.136834976E1;1.502917886E0;-1.854775429E0;-3.036114931E0
1.138607291E1;2.833458185E0;-2.155560493E0;-2.912006378E0
1.140379172E1;3.942197800E0;-1.524891853E0;-3.260337353E0
1.142152121E1;3.767359495E0;-1.628699303E0;-4.062148094E0
1.143924088E1;1.350444198E0;-2.056280136E0;-5.544128895E0
1.145696457E1;-1.053471863E-2;-2.017753601E0;-6.390995502E0
1.147468595E1;2.740670681E0;-2.848506927E0;-6.097338676E0
1.149241324E1;6.213519096E0;-3.709721565E0;-5.471813679E0
1.151013791E1;4.934690475E0;-2.452104568E0;-6.298467636E0
1.152785941E1;2.534171104E0;-5.343112946E-1;-2.907506466E0
1.154558487E1;1.980037570E0;-1.020844460E0;5.045351505E0
1.156330142E1;1.082266569E0;-5.919122696E0;5.689500809E0
1.158103067E1;4.328975976E-1;-9.035467148E0;4.573086500E-1
1.159875553E1;-5.598180294E-1;-8.643499374E0;-1.772315025E0
1.161647666E1;-2.475757122E0;-7.145560265E0;4.865233898E-1
1.163420365E1;-3.565891266E0;-4.319066048E0;3.091103554E0
1.165192337E1;-2.756078243E0;-1.575280190E0;1.996515393E0
1.166964505E1;-1.721266270E0;-4.937086105E-1;1.454397321E0
1.168737320E1;-1.325306892E-1;5.524892807E-1;2.306543350E0
1.170509232E1;2.256594658E0;1.748064041E0;3.370262146E0
1.172282028E1;3.307739019E0;2.439010143E0;5.147775173E0
1.174054856E1;1.839574575E0;3.415483475E0;6.057304859E0
1.175826730E1;-5.502456427E-1;4.793234825E0;7.435111046E0
1.177598728E1;-2.532911062E0;5.682548523E0;8.242830276E0
1.179371420E1;-2.829676867E0;5.835774422E0;7.877507210E0
1.181143680E1;-1.935507178E0;5.840457916E0;7.141409874E0
1.182915085E1;-1.279380322E0;5.843706608E0;5.524229527E0
1.184688132E1;-9.907782078E-1;5.197952271E0;2.709187984E0
1.186460776E1;-1.915057302E-1;3.837642193E0;6.130094528E-1
1.188233036E1;1.267319620E-1;1.691066742E0;-1.657963514E0
1.190005557E1;-1.045293212E0;-2.266997337E0;-8.738032341E0
1.191778006E1;-1.549632549E0;-9.309252739E0;-1.380956459E1
1.193550168E1;-7.896708846E-1;-1.180855846E1;-8.941609383E0
1.195322653E1;2.319354773E0;-4.044885635E0;-3.510933876E0
1.197095285E1;1.416568518E0;2.463581085E0;-4.330437183E0
1.198867063E1;1.140295982E0;4.990787506E0;-4.232944012E0
1.200639395E1;-1.076569438E0;-9.284896851E-1;-1.527433395E-1
1.202412058E1;-5.524072647E0;-6.604828835E0;6.923246861E0
1.204183219E1;-4.529828548E0;-7.361241341E0;7.188373089E0
1.205956955E1;-6.807288170E0;-6.457706451E0;-2.229726791E0
1.207728781E1;-5.523696899E0;1.262485981E0;6.328291893E0
1.209501621E1;6.050510406E-1;7.643013954E0;9.469532013E0
1.211273856E1;7.489243507E0;3.754920006E0;1.002064991E1
1.213045798E1;6.951145649E0;-3.833070755E0;8.682888985E0
1.214818839E1;4.096302032E0;-6.125188828E0;-2.887355566E0
1.216590921E1;2.063116074E0;-2.826944351E0;-1.797093153E0
1.218362595E1;-5.341213942E-2;9.905509949E-1;3.198502541E0
1.220135703E1;-2.495248556E0;1.891937256E0;1.782423377E0
1.221906858E1;-2.784967899E0;2.363436699E0;7.603518963E-1
1.223680466E1;-1.180651426E0;2.002857208E0;2.080351114E-1
1.225452689E1;8.870523572E-1;1.588077545E0;-4.211972952E-1
1.227224851E1;2.084287167E0;9.545745850E-1;-4.128863811E-1
1.228997409E1;2.222898722E0;7.819633484E-1;-5.122120380E-1
1.230769632E1;1.664504528E0;1.421061516E0;-7.403444648E-1
1.232542325E1;8.944731355E-1;1.795928001E0;-1.052267551E0
1.234314139E1;2.569497228E-1;1.840550900E0;-8.976423740E-1
1.236086551E1;-4.874986410E-2;1.416084290E0;-7.964470983E-1
1.237858713E1;-8.742001653E-1;4.451799393E-1;-1.134221077E0
1.239630203E1;-1.391553164E0;-4.383554459E-1;-2.019836664E0
1.241403909E1;-3.222148418E-1;-3.158931732E-1;-2.824081659E0
1.243176382E1;1.058775067E0;-6.350221634E-1;-3.653330326E0
1.244948630E1;1.932386160E0;-1.924902916E0;-3.978724480E0
1.246720957E1;3.041925192E0;-2.022686005E0;-3.912921429E0
1.248493186E1;4.973346233E0;-1.792559624E0;-3.334069014E0
1.250265347E1;4.402534962E0;-2.705399513E0;-4.406577110E0
1.252038059E1;1.302455187E0;-2.849843025E0;-6.592055321E0
1.253810422E1;1.669188738E0;-3.469985962E0;-5.598097801E0
1.255582907E1;5.103857040E0;-3.418548584E0;-5.212252140E0
1.257354965E1;5.263191700E0;-3.022903442E0;-4.481468201E0
1.259127432E1;2.081233025E0;-3.097517967E0;-4.515441895E0
1.260899753E1;-4.233620465E-1;-2.223158836E0;-2.990475893E0
1.262672336E1;-7.412572503E-1;-2.443655014E0;6.209495068E0
1.264443320E1;-1.021364808E0;-5.252945900E0;6.125166893E0
1.266216934E1;-1.274435967E-2;-7.007431984E0;-1.977238178E0
1.267988822E1;-1.109373689E0;-6.519166946E0;-1.329803348E0
1.269761185E1;-3.165091991E0;-5.516251564E0;1.159717798E0
1.271534299E1;-3.685473919E0;-3.290141106E0;2.943617344E0
1.273306394E1;-2.392427444E0;-7.578935623E-1;1.841043353E0
1.275077915E1;-9.642946720E-1;4.470682144E-1;1.743917465E0
1.276851193E1;8.011631966E-1;1.419014931E0;2.180287600E0
1.278623453E1;2.420766830E0;1.821359158E0;3.903287411E0
1.280395944E1;2.456105947E0;1.886605740E0;4.700107574E0
1.282167520E1;8.270823956E-1;2.654531479E0;5.346534729E0
1.283940286E1;-1.192433596E0;3.960494995E0;6.358365059E0
1.285712912E1;-2.789038897E0;4.688244820E0;7.271306992E0
1.287484134E1;-2.149838448E0;5.488718510E0;7.600084305E0
1.289258096E1;-7.592270970E-1;5.845728874E0;7.096063614E0
1.291030216E1;-2.485552430E-1;5.563127518E0;5.343097210E0
1.292802329E1;9.961563349E-2;4.984422207E0;2.100045681E0
1.294574698E1;1.755699635E0;3.513883591E0;-2.470996380E0
1.296345871E1;2.307847500E0;1.157608032E-1;-5.423483849E0
1.298118393E1;-1.297357798E0;-4.368443489E0;-8.231086731E0
1.299890622E1;-4.494083405E0;-6.999043465E0;-7.754653931E0
1.301663724E1;-3.049239635E0;-6.656376839E0;-5.475851536E0
1.303436527E1;-7.872331142E-2;-3.076293945E0;-2.865211487E0
1.305208487E1;-4.180541635E-1;7.163496017E-1;-3.079334736E0
1.306981223E1;-1.219665885E0;2.342739582E0;-3.965696335E0
1.308753610E1;-1.672555447E0;-1.546467781E0;-3.914779186E0
1.310526065E1;-7.252328992E-1;-3.643734932E0;1.669850349E-1
1.312297946E1;-1.352320910E-1;-5.313271523E0;7.124367714E0
1.314070383E1;-4.241416931E0;-5.185698509E0;3.530705452E0
1.315842941E1;-7.532785416E0;8.631420135E-2;4.485454559E0
1.317615524E1;-3.839611530E0;4.990023613E0;1.268823385E0
1.319387894E1;7.207198620E0;5.471606731E0;9.012376785E0
1.321160013E1;1.197376060E1;-6.608333588E-1;9.810667038E0
1.322932675E1;7.721961975E0;-4.668877602E0;3.558615685E0
1.324704880E1;3.574244261E0;-4.330552101E0;-5.401689053E0
1.326476468E1;1.786491275E-2;-6.227617264E-1;-1.758024693E-1
1.328249722E1;-1.399787068E0;1.605231285E0;2.364500284E0
1.330021970E1;-1.433383226E0;1.605497837E0;1.945935726E0
1.331794229E1;-4.837551713E-1;1.580913544E0;1.600476503E0
1.333566330E1;6.088106036E-1;1.555252075E0;8.310781717E-1
1.335338132E1;1.142261744E0;1.480072021E0;-1.203961372E-1
1.337111569E1;7.781412601E-1;1.307544708E0;-2.526342869E-2
1.338883786E1;-3.176253289E-2;1.168688774E0;-6.460610032E-1
1.340656009E1;-4.167853296E-2;1.393079758E0;-1.211755991E0
1.342428629E1;2.820527554E-1;1.466100693E0;-1.421176314E0
1.344201016E1;1.063775182E0;1.467343330E0;-9.517392516E-1
1.345973184E1;1.347861171E0;1.137950897E0;-5.810676813E-1
1.347745718E1;8.341907263E-1;7.182064056E-1;-2.855862975E-1
1.349516788E1;-5.826920271E-2;-9.496688843E-3;-9.637748003E-1
1.351290305E1;-4.555124044E-1;-5.882120132E-1;-2.423817158E0
1.353063272E1;-1.027206779E-1;-1.082586288E0;-3.000193596E0
1.354835135E1;4.070804417E-1;-1.929708481E0;-3.166049957E0
1.356607395E1;1.359285951E0;-1.212909698E0;-4.307464600E0
1.358379477E1;3.642012119E0;-1.260784149E0;-4.521892548E0
1.360152115E1;4.781537533E0;-3.065937042E0;-4.672222614E0
1.361924606E1;3.196557522E0;-3.051323891E0;-5.727680683E0
1.363696482E1;3.303146839E0;-3.508336067E0;-5.455187798E0
1.365469168E1;5.826946735E0;-5.446347237E0;-4.665527821E0
1.367241526E1;6.251727581E0;-4.148125648E0;-6.455935955E0
1.369014041E1;4.801142216E0;-1.557835579E0;-4.303280354E0
1.370785996E1;2.050612450E0;-7.822313309E-1;-1.284930944E0
1.372558206E1;4.446108639E-1;-2.962576866E0;4.646645546E0
1.374331143E1;3.814111352E-1;-5.304041862E0;5.667174816E0
1.376103171E1;1.635262966E0;-5.708522797E0;5.648827553E-2
1.377875907E1;8.445774317E-1;-6.277737617E0;-1.214069724E0
1.379648136E1;-5.804265738E-1;-5.316465378E0;1.255526781E0
1.381420481E1;-1.193966866E0;-2.192679405E0;3.379502296E0
1.383192966E1;-6.123578548E-1;-2.629909515E-1;2.430345297E0
1.384964743E1;1.185964495E-1;1.847829819E-1;2.589966297E0
1.386737589E1;6.778230071E-1;3.494062424E-1;2.849185705E0
1.388509928E1;1.831236362E0;1.088214397E0;3.733382940E0
1.390282425E1;3.277227402E0;1.675902367E0;4.659389019E0
1.392054678E1;2.518368721E0;2.091470242E0;5.910202503E0
1.393827329E1;1.876101196E-1;3.151566505E0;6.879511833E0
1.395599417E1;-1.598264217E0;4.206228733E0;6.867127419E0
1.397371799E1;-2.538891792E0;4.981268883E0;6.345921040E0
1.399143845E1;-2.641028404E0;5.005477905E0;5.508327961E0
1.400914768E1;-2.088969707E0;5.163190842E0;5.000668526E0
1.402688687E1;-1.647871733E0;5.049616337E0;3.539859295E0
1.404461289E1;-5.218510628E-1;4.190032482E0;2.295399189E0
1.406233133E1;1.789552808E0;2.266094208E0;-8.764266968E-2
1.408005954E1;1.237970591E0;-1.093187332E-1;-3.274739742E0
1.409778006E1;4.389905930E-2;-3.800184250E0;-1.007110977E1
1.411551071E1;-7.178999186E-1;-7.944288254E0;-1.035929394E1
1.413323068E1;9.035199881E-2;-7.647841454E0;-5.636524200E0
1.415095108E1;1.435623884E0;-2.072967529E0;-4.574079990E0
1.416867356E1;1.539363384E0;2.672996998E0;-4.132917881E0
1.418640238E1;1.677301168E0;2.149407387E0;-3.365916729E0
1.420412503E1;-5.108613372E-1;-3.505262375E0;-8.045315742E-1
1.422184885E1;-1.951131105E0;-6.966914177E0;1.887246370E0
1.423957248E1;-3.462987185E0;-6.796404839E0;6.200132370E0
1.425729709E1;-1.009123516E1;-1.478686333E0;6.276172638E0
1.427500778E1;-1.133744812E1;4.287440300E0;2.016422033E0
1.429274436E1;-1.090618134E0;5.431762695E0;4.040746689E0
1.431046579E1;1.350225449E1;6.460981369E-1;1.487062645E1
1.432819046E1;1.289542484E1;-5.172283173E0;6.519940376E0
1.434591416E1;7.810947895E0;-5.887564659E0;-4.373108864E0
1.436362180E1;2.644816399E0;-1.765680313E0;-1.134397984E0
1.438136295E1;-9.428872466E-1;1.364184380E0;2.882529974E0
1.439908151E1;-2.809993267E0;1.251083374E0;1.704688787E0
1.441681009E1;-2.745981216E0;1.073111534E0;1.485764503E0
1.443453250E1;-3.211087584E-1;1.390225410E0;1.272517085E0
1.445225723E1;1.828647733E0;1.479269981E0;7.301722169E-1
1.446998093E1;1.583679795E0;1.043373108E0;-3.381540775E-1
1.448770334E1;1.049032211E0;1.169074059E0;-5.188924074E-2
1.450542575E1;3.468720913E-1;1.554930687E0;-6.362617016E-3
1.452313889E1;5.064470172E-1;1.502431870E0;-5.451059341E-1
1.454087601E1;7.972431779E-1;1.031196594E0;-9.501121640E-1
1.455859696E1;3.342665434E-1;8.530101776E-1;-1.317422032E0
1.457632242E1;-3.433116972E-1;7.306079865E-1;-9.785606861E-1
1.459404538E1;-8.209748864E-1;2.283687592E-1;-7.919191122E-1
1.461177011E1;-1.255776167E0;-1.227216721E-1;-2.223191738E0
1.462948941E1;-1.428344965E0;3.334045410E-2;-3.400003433E0
1.464721622E1;-7.766827345E-1;-1.239143372E0;-3.092427254E0
1.466492795E1;1.181422472E0;-2.179533958E0;-3.600446701E0
1.468266104E1;4.082376480E0;-1.367429733E0;-4.046505928E0
1.470038254E1;5.549551487E0;-1.693212509E0;-4.804946899E0
1.471810953E1;3.142167091E0;-3.002776146E0;-6.355833054E0
1.473583444E1;2.674009800E0;-3.890605927E0;-7.658071995E0
1.475354752E1;5.977954865E0;-4.349561691E0;-4.908672333E0
1.477127976E1;7.663770676E0;-3.956889153E0;-3.987436533E0
1.478900559E1;5.571971416E0;-2.877865791E0;-3.619939566E0
1.480672885E1;1.425811052E0;-2.070718765E0;-2.540732384E0
1.482445352E1;-2.015566349E0;-2.265489578E0;2.523427725E0
1.484216330E1;-1.904430151E0;-4.327678680E0;7.393746853E0
1.485990219E1;7.486185431E-2;-6.384662628E0;-2.465963960E-1
1.487762644E1;9.838644266E-1;-7.264821053E0;-1.756497622E0
1.489534543E1;-8.771244287E-1;-6.999022484E0;-1.573809385E-1
1.491307096E1;-2.230358124E0;-4.060154915E0;2.549077511E0
1.493079294E1;-1.768888354E0;-5.276861191E-1;2.475105047E0
1.494852097E1;-6.857078075E-1;8.714857101E-1;1.892415881E0
1.496624271E1;4.760211706E-1;1.268382072E0;2.300825596E0
1.498396390E1;1.577752233E0;1.715004444E0;3.543424368E0
1.500168424E1;3.100525141E0;2.187700748E0;5.223664761E0
1.501940164E1;1.931990147E0;2.513804436E0;6.103631020E0
1.503713754E1;2.151100636E-1;3.759341717E0;6.837739944E0
1.505484836E1;-1.162352920E0;5.328175545E0;7.341918945E0
1.507257883E1;-1.738044143E0;5.557075977E0;6.927941322E0
1.509030862E1;-1.836215258E0;5.251183510E0;6.367920876E0
1.510803043E1;-1.603255153E0;4.973348618E0;5.544067860E0
1.512575461E1;-1.330699682E0;4.686245918E0;3.534985065E0
1.514348178E1;-9.814329147E-1;3.752132893E0;2.506546497E0
1.516120474E1;-4.200557768E-1;1.630563736E0;1.643640995E-1
1.517892667E1;-2.223269224E0;-1.031467438E0;-7.720594406E0
1.519664145E1;-2.726652622E0;-6.946267128E0;-1.325395298E1
1.521437277E1;-1.611389518E0;-1.166300106E1;-9.243352890E0
1.523208713E1;1.171630025E-1;-7.786884308E0;-3.421744347E0
1.524982407E1;1.318496466E0;1.019995689E0;-4.415198803E0
1.526752982E1;2.302162886E0;6.856308937E0;-6.125319004E0
1.528526450E1;2.111727953E0;4.349260807E0;-3.996541977E0
1.530298978E1;-1.237325668E0;-3.005987167E0;4.201507092E0
1.532071536E1;-2.812974215E0;-5.270380020E0;1.108826447E1
1.533843729E1;-4.640121460E0;-8.199141502E0;2.877785206E0
1.535616190E1;-1.196103954E1;-8.445808411E0;-7.219486237E0
1.537388077E1;-7.594704151E0;4.670530796E0;8.853012085E0
1.539161057E1;3.847173214E0;1.101837254E1;1.075206375E1
1.540931516E1;1.094464874E1;7.419500351E-1;1.103444290E1
1.542705759E1;8.480836868E0;-7.570683479E0;8.840876579E0
1.544477634E1;5.303906918E0;-7.069914818E0;-5.539752007E0
1.546250467E1;1.527652025E0;-1.843665123E0;-2.875585079E0
1.548022727E1;-1.277476788E0;1.932322979E0;4.783787727E0
1.549795078E1;-3.139139652E0;2.272976398E0;1.863795161E0
1.551567044E1;-3.103045702E0;2.770133018E0;8.687269688E-1
1.553339926E1;-1.608121037E0;2.731544971E0;-3.094089031E-2
1.555112180E1;3.901117742E-1;2.063449383E0;-5.997648835E-1
1.556884543E1;1.790492773E0;1.257041931E0;-1.135615230E0
1.558656912E1;1.442888498E0;9.719753265E-1;-1.240765810E0
1.560429373E1;5.081181526E-1;1.276586533E0;-1.271807194E0
1.562201633E1;1.433690786E-1;1.720461845E0;-1.091453552E0
1.563974021E1;2.766957879E-2;1.632827759E0;-6.596540213E-1
1.565746250E1;-8.849077225E-1;9.751901627E-1;-1.687533259E0
1.567518558E1;-2.264120340E0;-7.341957092E-2;-2.808118820E0
1.569291110E1;-1.656917810E0;-1.232131958E0;-3.095441103E0
1.571063059E1;6.637453437E-1;-1.207462311E0;-3.437337399E0
1.572835953E1;1.808419228E0;-1.409648895E0;-4.049617767E0
1.574607828E1;2.015998602E0;-1.876820564E0;-3.305114746E0
1.576380222E1;3.739301205E0;-2.347637177E0;-3.785161495E0
1.578152896E1;3.809322357E0;-3.151916504E0;-5.274438858E0
1.579924289E1;2.073240280E0;-3.562919617E0;-6.605724812E0
1.581697580E1;3.258149624E0;-4.474180222E0;-5.905735970E0
1.583469937E1;6.197065353E0;-4.656257629E0;-5.832696915E0
1.585242233E1;4.810903549E0;-3.829962730E0;-4.593312740E0
1.587014719E1;1.183264494E0;-2.639530182E0;-4.298813820E0
1.588787698E1;-9.576576948E-1;-1.450571060E0;1.389563084E0
1.590559641E1;-1.513353229E0;-3.005146027E0;7.804568291E0
1.592331143E1;-1.987965941E0;-5.819252968E0;-8.927307129E-1
1.594104233E1;-8.317224979E-1;-7.534093857E0;-1.793083668E0
1.595876657E1;-1.882671356E0;-6.833135605E0;-8.949613571E-2
1.597648758E1;-3.053930521E0;-4.020215034E0;2.461341381E0
1.599421555E1;-2.945657015E0;-7.566213608E-1;2.276252985E0
1.601193656E1;-1.903065920E0;6.000480652E-1;1.921557188E0
1.602965616E1;-5.439341068E-1;1.169176102E0;2.240121841E0
1.604737888E1;7.616590261E-1;1.505670547E0;2.905132294E0
1.606509537E1;2.595231295E0;1.939482689E0;4.574082375E0
1.608283524E1;1.869698048E0;2.600780964E0;5.390763283E0
1.610055686E1;-2.121066451E-1;4.138710976E0;6.244693756E0
1.611827744E1;-1.979442120E0;5.506509781E0;7.014519691E0
1.613599027E1;-2.301513910E0;5.497866154E0;6.694240570E0
1.615371359E1;-8.605312705E-1;5.395617485E0;6.662592888E0
1.617145273E1;-1.997445822E-1;5.415324688E0;5.929676056E0
1.618916086E1;-2.279837728E-1;5.333010674E0;3.867419720E0
1.620688297E1;-3.239220381E-2;4.444070339E0;9.311313629E-1
1.622460544E1;4.160061479E-1;2.653549671E0;-2.296806812E0
1.624233481E1;-3.947530687E-1;-9.125766754E-1;-9.800713539E0
1.626006705E1;-3.343023062E0;-7.985190392E0;-1.294700623E1
1.627778952E1;-4.618360996E0;-1.383515930E1;-1.039679146E1
1.629551444E1;-1.735498190E0;-7.915027618E0;-4.649533272E0
1.631323898E1;5.266069174E-1;2.258708000E0;-6.018295288E0
1.633095877E1;-2.230271697E-1;5.574969769E0;-4.022374153E0
1.634868039E1;-5.121576309E0;-2.242874146E0;3.768246174E0
1.636640952E1;-5.469539165E0;-4.978343010E0;1.250693703E1
1.638413376E1;-4.708369255E0;-5.319422722E0;-1.937689781E-1
1.640185617E1;-3.723134995E0;-2.906636238E0;6.893274307E0
1.641957517E1;2.197040081E0;3.670479774E0;1.068693161E1
1.643730460E1;7.072906017E0;2.604785919E0;1.006917286E1
1.645502805E1;5.400197983E0;-3.259663582E0;6.496397495E0
1.647275192E1;1.733603716E0;-5.635750771E0;-1.648937941E0
1.649047543E1;1.494578838E0;-2.343772888E0;5.886132717E-1
1.650819663E1;1.171997428E0;3.973169327E-1;2.986380339E0
1.652592282E1;-3.115141392E-1;1.436930656E0;1.945375681E0
1.654362570E1;-1.954223275E0;1.732295036E0;8.118833303E-1
1.656137192E1;-1.687612653E0;2.448832989E0;-5.624377728E-2
1.657909128E1;2.046063244E-1;2.781577110E0;-9.742832184E-2
1.659681076E1;9.820926189E-1;2.099335670E0;2.809695005E-1
1.661453946E1;9.532740712E-1;1.282094002E0;3.676959872E-2
1.663224857E1;5.666530132E-1;9.610738754E-1;-3.323758841E-1
1.664998960E1;2.198622227E-1;1.055901527E0;-7.714713812E-1
1.666771140E1;1.406985521E-1;1.032749176E0;-1.137066841E0
1.668543002E1;-2.945560515E-1;6.729755402E-1;-1.356166840E0
1.670315775E1;-1.370986700E0;-4.360008240E-2;-2.076575279E0
1.672087625E1;-1.806858897E0;-7.243938446E-1;-2.914957285E0
1.673860599E1;-3.983162344E-1;-7.689609528E-1;-4.190113544E0
1.675632956E1;1.421490669E0;-1.437377930E0;-3.999295950E0
1.677405332E1;1.897474527E0;-2.413064003E0;-3.614831924E0
1.679177585E1;2.535721302E0;-1.957652092E0;-3.725639343E0
1.680950015E1;3.724156857E0;-1.534055710E0;-4.051404953E0
1.682722312E1;3.516324520E0;-2.187794685E0;-5.012425423E0
1.684494669E1;1.128558636E0;-2.661901474E0;-6.885178566E0
1.686266648E1;2.147773027E0;-3.102654457E0;-7.300629616E0
1.688039499E1;6.219462395E0;-3.663874626E0;-5.735695839E0
1.689811484E1;5.706579685E0;-3.218861580E0;-5.638037682E0
1.691584134E1;2.548254967E0;-2.432161331E0;-3.700151443E0
1.693356577E1;8.224837780E-1;-1.605294228E0;3.995036364E0
1.695128934E1;-1.165935397E0;-4.965301514E0;6.595675468E0
1.696901218E1;-2.080730438E0;-7.998406410E0;-1.491603136E0
1.698673496E1;-1.855369806E0;-7.713107109E0;-3.127385378E-1
1.700445804E1;-2.985846996E0;-6.335952759E0;2.602280378E-1
1.702217917E1;-3.672746181E0;-3.962776184E0;2.709758282E0
1.703990933E1;-3.162719727E0;-1.162255287E0;2.250077009E0
1.705763089E1;-1.921490073E0;2.401456833E-1;1.489069104E0
1.707535587E1;-5.819240808E-1;9.424180984E-1;1.745046496E0
1.709307840E1;1.554267883E0;1.826811314E0;3.337962627E0
1.711080094E1;2.963510275E0;2.359280586E0;4.731744766E0
1.712852170E1;2.441937208E0;3.282066345E0;5.688934803E0
1.714624912E1;5.800889730E-1;4.773995876E0;7.019032478E0
1.716396988E1;-1.491834760E0;5.695801735E0;7.989996910E0
1.718169528E1;-1.976373434E0;5.516962528E0;7.436425209E0
1.719940030E1;-1.283617139E0;5.171982765E0;6.739447594E0
1.721714420E1;-8.154532909E-1;5.251955509E0;5.345137119E0
1.723486746E1;-9.241112471E-1;5.254282951E0;2.621417046E0
1.725258695E1;-4.197806716E-1;4.058619499E0;4.732327461E-1
1.727031455E1;2.704342008E-1;1.457784653E0;-8.866539001E-1
1.728802048E1;-1.529251099E0;-2.446889877E0;-7.278330326E0
1.730576267E1;-3.359343529E0;-9.386887550E0;-1.435827065E1
1.732348557E1;-3.540440083E0;-1.307469559E1;-9.792903900E0
1.734120786E1;4.167904556E-1;-4.509744644E0;-2.733324528E0
1.735893161E1;3.677212000E-1;3.528279305E0;-5.070577621E0
1.737665103E1;-8.658031225E-1;5.301479816E0;-4.404451847E0
1.739437735E1;-3.305723906E0;-2.749134064E0;8.414843082E-1
1.741210220E1;-3.865131617E0;-6.348969460E0;7.222107887E0
1.742982443E1;-6.724797487E-1;-3.653912544E0;1.243657970E1
1.744755197E1;-4.816352844E0;-2.607007980E0;-2.517395020E0
1.746526932E1;-1.113819504E1;1.601415157E0;4.618118763E0
1.748298715E1;-5.921689510E0;6.102028370E0;1.930473804E0
1.750072043E1;7.251366615E0;2.703718185E0;1.225111961E1
1.751844309E1;1.166048145E1;-5.715104103E0;1.063419056E1
1.753616770E1;6.943111897E0;-7.238704681E0;3.129796028E0
1.755389133E1;3.906046391E0;-2.901820183E0;-5.957425117E0
1.757161844E1;-3.786770105E-1;5.530462265E-1;-4.299242496E-1
1.758934549E1;-2.659385920E0;1.876772881E0;3.518959045E0
1.760706223E1;-3.645150900E0;1.667115211E0;1.930914283E0
1.762478470E1;-2.082621336E0;2.168782234E0;6.361590028E-1
1.764250565E1;-1.131026447E-1;2.121861458E0;9.375858307E-2
1.766023410E1;8.561700583E-1;1.565437317E0;2.537846565E-2
1.767795682E1;1.021773577E0;1.189441681E0;-2.417497039E-1
1.769567435E1;8.946706057E-1;1.136047363E0;-6.500373483E-1
1.771340396E1;9.752821922E-2;1.256844521E0;-7.589880824E-1
1.773112576E1;-2.222694755E-1;1.177981377E0;-1.485750675E0
1.774885221E1;-3.184821904E-1;1.045203209E0;-2.501232624E0
1.776657004E1;-4.639152288E-1;7.531204224E-1;-3.147686481E0
1.778429947E1;8.592523634E-2;3.740367889E-1;-3.108612537E0
1.780202292E1;8.903926015E-1;-4.420185089E-2;-3.327192307E0
1.781974680E1;5.727444887E-1;-1.589117050E0;-3.205089569E0
1.783746817E1;5.216044188E-1;-2.213665962E0;-3.331112385E0
1.785518112E1;2.081516266E0;-1.782194138E0;-3.891788244E0
1.787292020E1;3.552767992E0;-1.902392387E0;-4.442794800E0
1.789063602E1;2.005466461E0;-2.180117607E0;-5.962896347E0
1.790836405E1;8.709405065E-1;-2.832291603E0;-7.064947605E0
1.792608621E1;3.997878790E0;-4.466116905E0;-6.029256821E0
1.794381278E1;6.897439480E0;-4.764105797E0;-5.445022583E0
1.796153794E1;4.211837769E0;-4.035063744E0;-4.920853138E0
1.797925522E1;1.366794556E-1;-2.466304779E0;-3.491268396E0
1.799699741E1;-1.239272356E0;-2.019001007E0;5.107725143E0
1.801470554E1;-2.548993349E0;-5.564402580E0;6.139711380E0
1.803242813E1;-1.200169325E0;-7.686219215E0;-2.702106953E0
1.805015268E1;-1.223123074E0;-7.545092583E0;-1.292340875E0
1.806786435E1;-3.206425667E0;-5.831796646E0;8.165328503E-1
1.808560086E1;-3.843140364E0;-3.002534866E0;3.027982712E0
1.810332431E1;-2.926172495E0;-5.864286423E-1;1.944774270E0
1.812104502E1;-1.158748865E0;4.909105301E-1;1.418760657E0
1.813877048E1;9.702813625E-1;1.493026733E0;1.948519230E0
1.815649515E1;2.520742655E0;1.925806046E0;3.701285839E0
1.817421781E1;3.157552958E0;2.471205711E0;5.310903549E0
1.819194144E1;1.273882151E0;3.563639641E0;6.084732056E0
1.820965744E1;-8.609377742E-1;4.971404552E0;7.309192657E0
1.822738962E1;-2.224188805E0;5.873780251E0;7.929112434E0
1.824510398E1;-1.712421179E0;5.982820034E0;7.487246513E0
1.826283591E1;-4.572919011E-1;5.948641777E0;6.797746658E0
1.828055930E1;-4.517939091E-1;5.514207840E0;5.484279156E0
1.829828202E1;-3.116198778E-1;5.051416397E0;2.534661293E0
1.831600668E1;4.504442215E-1;3.814979553E0;-2.062726021E-1
1.833371823E1;1.477288604E-1;1.377597809E0;-3.854153395E0
1.835145645E1;-1.732722402E0;-2.678423882E0;-1.052920532E1
1.836917380E1;-4.190679550E0;-9.632189751E0;-1.193158436E1
1.838689352E1;-3.920723677E0;-1.306161118E1;-7.534832954E0
1.840462723E1;-1.482769489E0;-5.732230186E0;-2.675549507E0
1.842233780E1;-1.087898731E0;3.158979416E0;-5.307815075E0
1.844007401E1;-2.018652916E0;3.839797497E0;-5.365803242E0
1.845779587E1;-4.554444313E0;-3.310540199E0;-8.118147850E-1
1.847551920E1;-6.167163849E0;-8.578545570E0;7.005467892E0
1.849324259E1;-4.342586040E0;-4.083756447E0;6.339344978E0
1.851095603E1;-7.025793552E0;2.634682655E0;7.083932877E0
1.852869540E1;-1.752961040E0;9.175505638E0;1.013771820E1
1.854641422E1;6.159599781E0;3.208453178E0;4.959958076E0
1.856413333E1;1.021162701E1;-6.357315063E0;1.413452911E1
1.858186179E1;5.472899437E0;-8.848607063E0;3.203319550E0
1.859957120E1;1.099948525E0;-5.878104210E0;-9.789163589E0
1.861729770E1;-2.646940053E-1;6.708278656E-1;2.956524611E0
1.863503171E1;-2.302946299E-1;3.669209957E0;5.032243729E0
1.865275595E1;-1.275760174E0;2.332541466E0;1.645309448E0
1.867048026E1;-1.673459649E0;1.541586876E0;2.928310633E-1
1.868819071E1;-7.465761900E-1;1.530053139E0;-1.703883410E-1
1.870592588E1;9.312694073E-1;1.585354805E0;1.039522886E-1
1.872364682E1;1.691434503E0;1.232132912E0;-5.592943430E-1
1.874136844E1;1.360697508E0;9.645805359E-1;-1.403295994E0
1.875909683E1;5.936520100E-1;1.307122231E0;-1.704721212E0
1.877681473E1;1.965153813E-1;1.867148399E0;-1.500174046E0
1.879454636E1;5.280421376E-1;2.084280491E0;-1.057155013E0
1.881226706E1;5.974999070E-1;1.565534592E0;-1.123904943E0
1.882999143E1;-5.649205446E-1;4.759140015E-1;-1.738013506E0
1.884771482E1;-1.402017593E0;-2.634820938E-1;-2.380981445E0
1.886543643E1;-2.140241712E-1;2.478599548E-3;-3.073987484E0
1.888315036E1;8.169829249E-1;-1.719226837E-1;-3.486729145E0
1.890088455E1;1.092319727E0;-2.026391029E0;-3.890371799E0
1.891860935E1;1.771902323E0;-2.446440697E0;-3.983329773E0
1.893633206E1;3.687134027E0;-2.325289726E0;-4.536466122E0
1.895405368E1;3.455697060E0;-2.921916962E0;-5.628351688E0
1.897177896E1;7.015173435E-1;-3.154592514E0;-7.085235596E0
1.898948752E1;2.137953758E0;-4.119971275E0;-6.753323555E0
1.900722977E1;6.223342896E0;-4.703384399E0;-5.599062920E0
1.902495096E1;5.119170666E0;-4.049745560E0;-4.913953781E0
1.904266715E1;8.089780807E-1;-2.019431114E0;-5.050513268E0
1.906039829E1;-6.993599534E-1;2.493772507E-1;1.371117830E0
1.907810843E1;-6.406633258E-1;-2.483119965E0;6.598474026E0
1.909584708E1;3.924706876E-1;-6.790529251E0;-1.050851226E0
1.911356998E1;9.542068243E-1;-8.274429321E0;-1.329124689E0
1.913129526E1;-2.749766350E0;-7.548318863E0;-2.338377237E-1
1.914901706E1;-5.107999802E0;-4.803015709E0;2.731351852E0
1.916674289E1;-4.764737606E0;-1.807223320E0;1.670075417E0
1.918446567E1;-3.438784838E0;-4.766845703E-2;9.645448923E-1
1.920218686E1;-1.302013040E0;1.005052567E0;1.174140811E0
1.921990860E1;9.365663528E-1;1.890454292E0;2.132188797E0
1.923763010E1;2.778193235E0;2.210250378E0;4.429125786E0
1.925535739E1;2.849250793E0;2.799034595E0;5.613107681E0
1.927308328E1;6.427186728E-1;4.045017242E0;6.292044640E0
1.929080618E1;-1.337562799E0;5.560737610E0;7.456254005E0
1.930852542E1;-2.300076485E0;6.562913895E0;7.695280075E0
1.932625223E1;-1.619652748E0;6.756962299E0;6.753391743E0
1.934397092E1;-4.453927875E-1;6.471474648E0;5.924270153E0
1.936170358E1;-2.137023211E-2;5.830246925E0;3.621077299E0
1.937942197E1;1.547318220E0;4.276247978E0;-7.740139961E-1
1.939714932E1;2.932259560E0;7.924299240E-1;-5.748908997E0
1.941486545E1;-3.608793020E-2;-4.110813141E0;-8.620463371E0
1.943259201E1;-6.299068451E0;-7.795770645E0;-1.035275078E1
1.945030448E1;-6.345121861E0;-8.801384926E0;-6.888481140E0
1.946802866E1;-1.850175381E0;-4.447531700E0;-3.161195517E0
1.948575296E1;-7.799818516E-1;1.159142494E0;-3.701647282E0
1.950349216E1;-2.845354080E0;3.798583508E0;-4.985776901E0
1.952120993E1;-5.638944149E0;-1.620160103E0;-3.056159496E0
1.953893527E1;-6.283875465E0;-7.576750755E0;6.469196796E0
1.955665421E1;-2.419469833E0;-8.264945030E0;1.070113182E1
1.957438358E1;-3.492314339E0;-5.202090263E0;1.332631111E-1
1.959210642E1;-4.913140535E-1;5.036797523E0;1.190379047E1
1.960983084E1;4.674005985E0;8.453313828E0;7.064224243E0
1.962755350E1;8.353155136E0;9.850387573E-1;8.382398605E0
1.964526572E1;4.496920109E0;-6.471093178E0;6.978635788E0
1.966300229E1;3.297120094E0;-6.224317551E0;-2.812434673E0
1.968072434E1;1.854881048E0;-2.357669830E0;-1.061356068E-1
1.969844480E1;-7.564394474E-1;1.366589546E0;2.613345623E0
1.971616776E1;-3.101660013E0;2.765778542E0;1.001504183E0
1.973389066E1;-3.048842669E0;2.792713165E0;-3.752728701E-1
1.975161972E1;-7.197768688E-1;2.137190819E0;-4.773679972E-1
1.976933139E1;1.356380701E0;1.256181717E0;-5.714270473E-1
1.978706027E1;2.444566488E0;9.761142731E-1;-9.119794369E-1
1.980478824E1;1.976282835E0;1.340428352E0;-9.578858614E-1
1.982251273E1;9.849811196E-1;1.554140091E0;-1.038662791E0
1.984023972E1;4.641001225E-1;1.322129250E0;-1.710181952E0
1.985796146E1;6.254693866E-2;8.843173981E-1;-2.458880424E0
1.987567960E1;-6.776039600E-1;3.733539581E-2;-1.993695974E0
1.989340811E1;-1.275460124E0;-5.563697815E-1;-2.730980158E0
1.991111734E1;-2.831999660E-1;1.707191467E-1;-4.024784088E0
1.992885581E1;6.555507183E-1;-4.745769501E-2;-4.145412445E0
1.994657688E1;2.207302749E-1;-1.824473381E0;-3.479993582E0
1.996430270E1;1.020590901E0;-2.568080902E0;-3.029163122E0
1.998202274E1;3.187273264E0;-2.389036179E0;-4.260504723E0
1.999973923E1;4.256273746E0;-2.124302864E0;-5.700025082E0
2.001747190E1;2.764467239E0;-2.928411484E0;-6.916150093E0
2.003519656E1;3.698397636E0;-5.056059837E0;-7.155027866E0
2.005291727E1;6.689275265E0;-5.164360046E0;-5.480713844E0
2.007064102E1;4.420229912E0;-3.624530792E0;-3.853566170E0
2.008835965E1;-1.771419048E-1;-3.185688972E0;-3.825933933E0
2.010609079E1;-1.367024660E0;-2.502580643E0;1.548687696E0
2.012379782E1;-1.663431406E0;-4.270133972E0;7.581791401E0
2.014154019E1;-9.680693150E-1;-6.256718636E0;-1.713526726E0
2.015926151E1;-6.974884868E-2;-6.315034866E0;-1.572980165E0
2.017699753E1;-2.520364046E0;-6.376850128E0;4.797136784E-2
2.019470786E1;-3.928209782E0;-4.284519196E0;2.637356758E0
2.021243210E1;-3.055887222E0;-1.301909447E0;2.832098246E0
2.023015604E1;-1.423842549E0;1.918697357E-1;1.673387051E0
2.024787845E1;1.988278925E-1;7.035179138E-1;1.547322989E0
2.026559879E1;2.177134752E0;1.332472801E0;2.934463978E0
2.028333054E1;3.571987867E0;1.850016594E0;4.345070839E0
2.030105033E1;2.308773518E0;2.884598255E0;5.479429722E0
2.031877597E1;2.955346107E-1;5.164965630E0;6.801386356E0
2.033649777E1;-1.484983444E0;6.892200947E0;7.927565098E0
2.035422189E1;-1.996188998E0;6.624592781E0;7.772012711E0
2.037194504E1;-6.665252447E-1;6.125941753E0;6.986504555E0
2.038966818E1;-1.176564693E-1;5.897242069E0;5.597311974E0
2.040739548E1;-4.579512477E-1;5.332125664E0;3.120655537E0
2.042511685E1;1.201657653E-1;4.461203575E0;7.705006599E-1
2.044283621E1;9.483252168E-1;2.686107635E0;-7.725048065E-1
2.046056296E1;-1.055978417E0;-6.290349960E-1;-6.529847622E0
2.047828476E1;-3.244710922E0;-7.359811783E0;-1.313659668E1
2.049601132E1;-4.306953430E0;-1.481206322E1;-1.236151314E1
2.051373380E1;-1.407001257E0;-9.564185143E0;-3.861070633E0
2.053145566E1;-1.335356236E-1;1.670732975E0;-6.480395317E0
2.054918057E1;8.135514259E-1;8.733541489E0;-5.846604347E0
2.056690091E1;-2.318244457E0;3.050724506E0;6.204700470E-2
2.058463400E1;-6.956632614E0;-7.149608612E0;8.734504700E0
2.060235172E1;-4.999982357E0;-6.041399002E0;9.903254509E0
2.062006284E1;-7.011158943E0;-6.059858322E0;-1.553690434E0
2.063780032E1;-5.014438152E0;-3.162441254E-1;4.717146397E0
2.065551901E1;3.126272202E0;5.463364601E0;8.925676346E0
2.067324906E1;1.064831543E1;3.925942421E0;1.441905308E1
2.069096512E1;7.695873737E0;-3.798480988E0;6.115333080E0
2.070869138E1;2.610680103E0;-7.510332108E0;-2.599501848E0
2.072641611E1;7.301585674E-1;-4.667459488E0;-3.160583496E0
2.074414066E1;6.231976151E-1;5.533514023E-1;4.434499741E0
2.076185953E1;-7.864133120E-1;2.343275070E0;2.445628166E0
2.077958884E1;-1.983737588E0;2.485078812E0;3.831503391E-1
2.079731241E1;-1.441869020E0;2.559982777E0;1.631937027E-1
2.081503604E1;1.774571836E-1;2.131333351E0;-6.715750694E-2
2.083275870E1;1.148958206E0;1.542777061E0;7.968425751E-3
2.085048337E1;1.194633126E0;1.328250885E0;-5.855367780E-1
2.086820377E1;8.840340972E-1;1.551205635E0;-1.168799400E0
2.088592948E1;3.882912099E-1;1.755445480E0;-1.333865285E0
2.090364920E1;5.050150156E-1;1.682142258E0;-1.500690460E0
2.092137467E1;1.379314810E-1;1.106717110E0;-2.004516602E0
2.093910037E1;-1.264395833E0;2.488851547E-1;-2.704558611E0
2.095681980E1;-1.444823027E0;-4.016180038E-1;-3.415486336E0
2.097454733E1;-2.601126730E-1;-7.412958145E-1;-2.937838316E0
2.099227121E1;8.421662450E-2;-1.384932518E0;-3.134948730E0
2.100999167E1;2.505580187E-1;-2.229936600E0;-4.411030769E0
2.102771793E1;2.373115063E0;-2.103803635E0;-4.387704372E0
2.104542899E1;4.668728828E0;-2.611226082E0;-4.903553963E0
2.106316532E1;4.107413769E0;-2.869821548E0;-6.532393456E0
2.108088681E1;3.099699974E0;-3.155832291E0;-7.560271740E0
2.109861038E1;5.295312881E0;-4.174093246E0;-5.323527336E0
2.111633450E1;5.601442814E0;-3.946707726E0;-5.248005867E0
2.113405655E1;1.317628980E0;-2.535128593E0;-6.185140133E0
2.115178263E1;4.553677440E-1;-1.599725723E0;-1.708031893E0
2.116950730E1;3.184338093E0;-3.009745598E0;7.141538143E0
2.118723056E1;-3.497886658E-2;-7.186500549E0;1.869856477E0
2.120495529E1;-1.486849666E0;-7.423291206E0;-8.881086111E-1
2.122266477E1;-3.297845602E0;-6.681641579E0;-9.423732162E-1
2.124040384E1;-4.338624954E0;-5.110708237E0;9.035173655E-1
2.125812515E1;-3.718805075E0;-2.478355408E0;2.461383581E0
2.127584976E1;-2.473145962E0;-2.049016953E-1;1.649037600E0
2.129357224E1;-1.058320999E0;7.981538773E-1;1.461508274E0
2.131129684E1;6.777554750E-1;1.759115219E0;1.927171946E0
2.132901975E1;2.435397148E0;2.275964737E0;3.502568007E0
2.134674436E1;3.866498947E0;2.408106804E0;4.592146873E0
2.136446549E1;1.917170763E0;3.556818962E0;5.984553814E0
2.138219046E1;-4.959155023E-1;5.392341614E0;7.187684536E0
2.139991379E1;-2.595395088E0;6.156444550E0;7.322757721E0
2.141763516E1;-2.473198175E0;5.592001915E0;6.385903835E0
2.143536136E1;-1.392526388E0;5.197865486E0;5.495181561E0
2.145308469E1;-6.982657909E-1;5.213479996E0;4.067817211E0
2.147080857E1;-3.260779381E-1;5.228004456E0;1.566096783E0
2.148853134E1;6.925512552E-1;4.142451286E0;-7.814693451E-1
2.150625577E1;6.410366297E-2;4.553155899E-1;-8.538426399E0
2.152396750E1;-2.934921503E0;-5.942839622E0;-1.210777092E1
2.154170291E1;-4.723020554E0;-1.156485081E1;-9.979471207E0
2.155942630E1;-3.003049374E0;-8.432573318E0;-5.662735939E0
2.157714719E1;-4.160712957E-1;-5.839490891E-1;-4.609177589E0
2.159487259E1;2.028014660E0;6.286881924E0;-3.911545277E0
2.161259720E1;5.958452225E-1;6.497834206E0;-3.770194530E0
2.163032279E1;-5.698484898E0;-5.112676620E0;4.821801662E0
2.164804465E1;-6.944628239E0;-1.050631523E1;1.699184608E1
2.166576438E1;-7.140106201E0;-1.078400707E1;-2.301229477E0
2.168349252E1;-7.087351322E0;-3.082028389E0;2.704057932E0
2.170120487E1;1.708843827E0;8.741468430E0;1.022934914E1
2.171894156E1;1.101214027E1;6.769498825E0;1.371767426E1
2.173665836E1;8.494991302E0;-3.321684837E0;1.206759644E1
2.175438407E1;2.914076328E0;-9.054435730E0;-4.957054138E0
2.177211081E1;6.470345259E-1;-7.211873055E0;-4.330023766E0
2.178982706E1;1.382755160E0;1.412115097E-1;5.035202503E0
2.180755777E1;-5.193200111E-1;2.878798485E0;3.901507378E0
2.182528171E1;-3.310057640E0;3.214932919E0;5.557359457E-1
2.184300217E1;-2.983520269E0;3.002073288E0;-4.724043608E-1
2.186072775E1;-2.915806770E-1;2.049120903E0;-3.312177658E-1
2.187844992E1;1.833062887E0;1.274771690E0;-4.071525335E-1
2.189617502E1;2.471401691E0;1.063268661E0;-9.894158244E-1
2.191389969E1;1.972833157E0;1.432704926E0;-8.850040436E-1
2.193162497E1;1.237717509E0;1.533061028E0;-1.167249322E0
2.194934567E1;8.346629143E-1;1.478617668E0;-2.968669176E0
2.196705734E1;3.627043366E-1;9.892187119E-1;-3.483899593E0
2.198479599E1;-1.644932479E-1;-2.297601700E-1;-2.940138340E0
2.200251657E1;6.929001212E-1;-6.395549774E-1;-4.149004459E0
2.202023740E1;1.944607735E0;4.934701920E-1;-4.548477173E0
2.203795902E1;6.427249908E-1;-9.765605927E-1;-4.602832794E0
2.205567868E1;2.741351128E-1;-2.785740852E0;-4.197181225E0
2.207341190E1;3.204380751E0;-2.703907013E0;-4.355720520E0
2.209113571E1;5.390417099E0;-2.233324051E0;-5.198250771E0
2.210885422E1;3.861017466E0;-2.368773460E0;-6.559366226E0
2.212658292E1;3.028438568E0;-4.204904556E0;-6.669137955E0
2.214430466E1;5.771993637E0;-6.118431091E0;-5.529002190E0
2.216202896E1;5.752948284E0;-4.631661415E0;-3.267158985E0
2.217975272E1;2.834614217E-1;-3.131414413E0;-3.676756620E0
2.219747635E1;-2.959928036E0;-1.131308556E0;-1.965908408E-1
2.221519992E1;-3.588192701E0;-1.859724998E0;8.578110695E0
2.223292349E1;-2.224799395E0;-5.516099930E0;-9.688417912E-1
2.225064237E1;1.094314575E0;-7.464962959E0;-2.569064617E0
2.226836966E1;-9.709906578E-1;-7.421224594E0;-8.470393419E-1
2.228609751E1;-3.976554155E0;-4.817338943E0;1.700620174E0
2.230381809E1;-4.283044338E0;-1.749189377E0;2.052639008E0
2.232154062E1;-1.934438229E0;-1.601209641E-1;8.242441416E-1
2.233926621E1;4.694083035E-1;7.326936722E-1;8.527452946E-1
2.235699198E1;2.333567858E0;1.251063347E0;2.473612309E0
2.237471231E1;3.713393927E0;1.625704765E0;4.108979702E0
2.239243601E1;2.205403805E0;2.462092876E0;5.146176338E0
2.241016074E1;-6.518781185E-2;4.419912815E0;6.286924839E0
2.242788297E1;-1.759324789E0;6.677399635E0;7.618882179E0
2.244559494E1;-2.129930735E0;7.319973469E0;7.892021179E0
2.246333188E1;-6.614849567E-1;6.625819683E0;7.868599892E0
2.248105240E1;4.393866062E-1;5.596637726E0;6.927356720E0
2.249877365E1;1.757929921E-1;4.830029488E0;4.901067734E0
2.251650119E1;-1.747283936E-1;4.459294796E0;2.091202021E0
2.253422556E1;5.247086287E-2;3.234008312E0;-1.494582891E0
2.255195346E1;-5.182650685E-1;2.729930878E-1;-7.872100830E0
2.256966648E1;-4.185434818E0;-5.211659431E0;-9.099461555E0
2.258739517E1;-8.089941978E0;-1.340563202E1;-1.518197060E1
2.260511930E1;-6.072951794E0;-1.127115822E1;-3.680465460E0
2.262284366E1;3.804147243E-2;-2.403326035E-1;-4.898517609E0
2.264056558E1;1.172244549E-2;7.066578388E0;-7.479287148E0
2.265829123E1;-7.225188732E0;4.716682434E-1;1.789150238E-1
2.267601383E1;-7.793443680E0;-1.087379169E1;9.870807648E0
2.269373557E1;2.364221811E0;-8.267442703E0;7.962493896E0
2.271144931E1;1.811602592E0;-2.255270004E0;-1.494433403E0
2.272917319E1;-3.355634212E0;6.824573517E0;1.575713921E1
2.274690634E1;-3.559692383E0;6.666729927E0;1.066533089E0
2.276462741E1;4.126738548E0;-1.085481644E-1;9.434474945E0
2.278235538E1;8.446173668E0;-6.922060966E0;7.956967831E0
2.280007883E1;6.305258274E0;-7.457083702E0;-3.141474724E-2
2.281780264E1;4.058136940E0;-2.514860153E0;-7.734191418E-1
2.283552707E1;8.637925386E-1;1.034173965E0;2.950825691E-1
2.285324991E1;-1.254948735E0;2.444521427E0;1.443207502E0
2.287097336E1;-2.107616901E0;2.378364086E0;7.263599634E-1
2.288869620E1;-1.340012193E0;2.289955139E0;-4.956221581E-2
2.290642075E1;3.483927250E-1;1.825927734E0;-3.436062932E-1
2.292413382E1;1.462727547E0;1.206690788E0;-6.423031688E-1
2.294186649E1;2.023022175E0;1.535906792E0;-9.955934882E-1
2.295959152E1;1.738960385E0;1.875420570E0;-1.035840273E0
2.297731754E1;8.724249601E-1;1.518198967E0;-1.799457550E0
2.299503885E1;4.832656085E-1;1.215009689E0;-2.531162024E0
2.301275754E1;2.082884908E-1;8.539171219E-1;-2.673575401E0
2.303048960E1;-2.547639608E-2;2.507982254E-1;-2.064537525E0
2.304821067E1;2.307775468E-1;-1.922082901E-1;-3.616343021E0
2.306593155E1;1.359345913E0;3.027801514E-1;-5.359227180E0
2.308365299E1;1.512199402E0;-1.020782471E0;-5.179797173E0
2.310137638E1;1.518914223E0;-2.613277435E0;-4.319612503E0
2.311910660E1;3.332792997E0;-2.322809219E0;-4.436995506E0
2.313682468E1;4.467915058E0;-3.016747475E0;-5.571905136E0
2.315454715E1;2.027503252E0;-3.293386459E0;-7.146224022E0
2.317227377E1;1.087480187E0;-3.913784981E0;-7.772274017E0
2.319000290E1;5.720981598E0;-4.390666962E0;-5.629181862E0
2.320772519E1;7.746934891E0;-4.344244957E0;-4.774298668E0
2.322544455E1;3.538464785E0;-4.363399506E0;-3.244310856E0
2.324317081E1;2.024211884E-1;-3.058821678E0;3.791362286E0
2.326089401E1;-2.554985046E0;-4.322618484E0;8.790035248E0
2.327861661E1;-3.944786310E0;-7.674558640E0;-3.846572638E0
2.329633994E1;-1.824295282E0;-8.521916389E0;-1.245959520E0
2.331406345E1;-2.598686934E0;-7.420234680E0;8.627096415E-1
2.333178824E1;-3.572815895E0;-4.305114746E0;2.308446169E0
2.334951071E1;-2.929718733E0;-1.323167801E0;1.921141267E0
2.336723429E1;-1.059226990E0;5.038700104E-1;1.060807347E0
2.338495401E1;1.032044411E0;1.845366001E0;1.547109365E0
2.340267917E1;3.080241919E0;2.052759171E0;3.470070124E0
2.342040549E1;3.954246998E0;2.097248554E0;5.332101822E0
2.343813010E1;2.146977186E0;3.190621376E0;6.159517288E0
2.345585306E1;2.033483982E-1;5.444137573E0;7.300802231E0
2.347356680E1;-1.185844183E0;7.098182678E0;8.106540680E0
2.349130100E1;-1.077188015E0;7.424113274E0;7.440695763E0
2.350902292E1;-1.078336239E-1;6.513463020E0;6.641146183E0
2.352674698E1;-2.649027109E-2;6.083146095E0;5.367617607E0
2.354447025E1;-4.007130265E-1;5.497531891E0;2.421497583E0
2.356219400E1;2.094871402E-1;4.264215946E0;2.783346176E-1
2.357991770E1;1.776177883E-1;2.157561302E0;-1.492754936E0
2.359763693E1;-1.738024473E0;-2.174029350E0;-9.806824684E0
2.361536496E1;-3.918477774E0;-1.113705635E1;-1.429899311E1
2.363308560E1;-4.503144264E0;-1.558714199E1;-8.632359505E0
2.365081204E1;-1.724385023E-1;-4.894553185E0;-4.510265350E0
2.366852469E1;1.337519288E0;5.923471451E0;-6.412618637E0
2.368626029E1;1.529475451E0;9.502034187E0;-3.498963833E0
2.370398312E1;-5.877548218E0;-3.499475479E0;3.568547249E0
2.372170334E1;-9.445902824E0;-1.362529850E1;1.256217766E1
2.373943021E1;-1.789003730E0;-9.866292000E0;2.801861286E0
2.375714188E1;-4.452774048E0;-2.425594330E0;1.128352880E0
2.377487894E1;-2.055380344E0;1.081681538E1;1.396816826E1
2.379260111E1;5.865398407E0;9.751914024E0;6.598778248E0
2.381032486E1;7.816445827E0;-4.059305191E0;1.216001511E1
2.382804898E1;5.004607201E0;-9.987864494E0;4.543268204E0
2.384577683E1;3.345055819E0;-8.263836861E0;-8.785024643E0
2.386349802E1;2.219134331E0;-1.353833199E0;1.463943958E0
2.388121915E1;9.687053561E-1;3.319830894E0;4.426551819E0
2.389894058E1;-1.894258499E0;3.244443893E0;1.876326561E0
2.391666068E1;-2.897651911E0;2.704451561E0;-4.176234007E-1
2.393438089E1;-1.470829129E0;2.281621933E0;-7.916837931E-1
2.395211350E1;3.811458349E-1;1.552379608E0;-1.309990883E-1
2.396983524E1;1.106305242E0;1.241591454E0;-4.890590012E-1
2.398755930E1;1.075981736E0;1.555038452E0;-1.207878351E0
2.400528531E1;3.142185211E-1;1.556845665E0;-1.374691010E0
2.402300778E1;4.560855925E-1;1.538504601E0;-1.768944025E0
2.404073270E1;8.448731899E-1;1.171182632E0;-2.629392624E0
2.405844937E1;6.279580593E-1;2.303581238E-1;-3.653817177E0
2.407618161E1;9.407748580E-1;5.790805817E-2;-3.909591675E0
2.409390238E1;1.472797632E0;-2.807521820E-2;-3.494643211E0
2.411163687E1;6.818568707E-1;-1.539877892E0;-3.927104950E0
2.412934958E1;3.983561397E-1;-2.575315475E0;-4.277024746E0
2.414707321E1;2.839452744E0;-1.925362587E0;-4.588027954E0
2.416479556E1;4.906497002E0;-2.515891075E0;-5.840074539E0
2.418252146E1;2.883218288E0;-3.296405792E0;-6.697104454E0
2.420024381E1;6.587543488E-1;-2.663108826E0;-6.847312927E0
2.421796750E1;2.697134018E0;-3.032188416E0;-5.508045197E0
2.423569242E1;5.002113342E0;-3.870385170E0;-5.408963203E0
2.425341580E1;2.134554863E0;-3.405260086E0;-6.017765999E0
2.427113840E1;9.502381086E-2;-2.514809608E0;1.046827078E0
2.428886502E1;-1.094460487E-2;-4.162447929E0;8.079801559E0
2.430658536E1;-1.450674534E0;-7.289594650E0;7.953529954E-1
2.432429978E1;-4.261472225E-1;-8.463438988E0;-2.720836401E0
2.434203293E1;-2.234094381E0;-9.395731926E0;-1.846794367E0
2.435975168E1;-3.571796417E0;-5.983040810E0;2.545362949E0
2.437747690E1;-2.813672066E0;-1.449314117E0;2.561169624E0
2.439520487E1;-1.795434117E0;5.889701843E-2;1.287994862E0
2.441292648E1;-5.557947755E-1;7.275485992E-1;1.449744225E0
2.443064682E1;1.532450080E0;1.998609543E0;2.769976616E0
2.444837454E1;3.394183397E0;2.569205761E0;4.636511326E0
2.446609805E1;3.276926517E0;3.250238419E0;5.893175125E0
2.448382266E1;1.387081027E0;5.191907406E0;7.205429077E0
2.450153659E1;-8.311551213E-1;6.905338287E0;8.631567955E0
2.451927323E1;-2.031828880E0;7.217494011E0;8.641527176E0
2.453699906E1;-1.260148048E0;6.644912720E0;7.597547531E0
2.455471518E1;-8.139958382E-1;6.435101032E0;6.227462769E0
2.457243845E1;-8.828626871E-1;5.622305393E0;3.466388226E0
2.459015140E1;9.522980452E-2;4.128980637E0;1.326911449E-1
2.460788059E1;3.585366011E-1;1.033213615E0;-3.512004852E0
2.462559995E1;-1.512167454E0;-4.294501305E0;-1.137628269E1
2.464333200E1;-5.773188591E0;-1.193944836E1;-1.302441883E1
2.466105765E1;-5.531425953E0;-1.293743992E1;-7.612685204E0
2.467878214E1;-1.368579984E0;-3.623979568E0;-4.001246452E0
2.469650406E1;-1.829105616E-1;4.094641685E0;-5.820099831E0
2.471422849E1;-1.234750032E0;4.427608490E0;-4.537387371E0
2.473194480E1;-5.200818062E0;-5.277577400E0;-3.249874115E-1
2.474967282E1;-5.521472454E0;-1.003291988E1;7.744492054E0
2.476739200E1;-2.647556067E-1;-3.103988647E0;6.769920349E0
2.478512424E1;-3.449342489E0;2.500596523E0;8.084739685E0
2.480284635E1;-1.285252810E0;8.213703156E0;8.315040588E0
2.482057150E1;3.264284611E0;2.949332237E0;4.173812866E0
2.483829508E1;6.633042336E0;-5.308704376E0;1.195751953E1
2.485601853E1;5.881418705E0;-7.442277908E0;2.333226919E0
2.487374112E1;3.895897627E0;-4.489313126E0;-4.507394791E0
2.489146445E1;2.261075735E0;6.672496796E-1;2.369006157E0
2.490918826E1;5.474858284E-1;2.841041088E0;3.430207253E0
2.492690769E1;-1.709299684E0;2.073544502E0;1.490547419E0
2.494462955E1;-2.622832537E0;2.091267586E0;7.745182514E-2
2.496235886E1;-1.424682021E0;2.391015530E0;-3.646322489E-1
2.498008274E1;2.979334295E-1;1.847508430E0;-2.702901363E-1
2.499780661E1;1.345344901E0;1.064866066E0;-1.130669594E0
2.501553000E1;1.677260876E0;1.066072464E0;-1.425743341E0
2.503324692E1;8.652285933E-1;1.481652260E0;-1.524016500E0
2.505097733E1;5.471716523E-1;1.950334549E0;-8.943339586E-1
2.506870413E1;6.138734221E-1;1.601860046E0;-1.047780275E0
2.508642624E1;5.383893475E-2;4.689884186E-1;-2.469096661E0
2.510414627E1;-1.279660583E0;-7.168893814E-1;-3.602797985E0
2.512187015E1;-1.545127273E0;-2.832946777E-1;-3.947269440E0
2.513959519E1;-8.228763342E-1;-8.733301163E-1;-4.492421627E0
2.515730826E1;1.880123138E0;-2.645496368E0;-4.182726383E0
2.517504660E1;5.241868019E0;-3.470058441E0;-3.997169971E0
2.519276602E1;6.606630802E0;-3.576998711E0;-4.965458393E0
2.521048776E1;3.913393497E0;-3.513210297E0;-6.517896652E0
2.522821304E1;-2.913123369E-2;-2.829260826E0;-7.256441116E0
2.524593753E1;1.282799244E0;-2.987013817E0;-6.652164459E0
2.526365549E1;4.416006565E0;-3.708193779E0;-5.803966522E0
2.528138394E1;4.224587440E0;-3.398129463E0;-5.897365570E0
2.529910520E1;2.130947590E0;-2.907212257E0;-3.408121586E0
2.531682541E1;1.596345663E0;-2.302790642E0;4.705275059E0
2.533454294E1;-1.397641420E0;-5.457237244E0;6.840098381E0
2.535228226E1;-4.606397629E0;-8.234073639E0;-2.262042761E0
2.537000199E1;-4.197706223E0;-7.678096771E0;2.947980165E-1
2.538772653E1;-4.579905987E0;-7.007232666E0;-3.195812702E-1
2.540544339E1;-4.022576809E0;-3.776782990E0;3.244175434E0
2.542316110E1;-1.530581117E0;-3.239545822E-1;2.222396612E0
2.544089237E1;2.346878350E-1;8.685102463E-1;8.630340099E-1
2.545862302E1;1.388391852E0;9.514350891E-1;1.806886911E0
2.547634732E1;2.986297607E0;1.544902802E0;3.512563229E0
2.549406729E1;3.797085524E0;2.097697258E0;5.599739075E0
2.551178824E1;1.888633490E0;3.377712250E0;6.415656090E0
2.552951554E1;-7.314875722E-1;5.857814789E0;7.591584206E0
2.554723807E1;-2.646825075E0;7.440105438E0;7.636619091E0
2.556496042E1;-2.099447489E0;7.038927078E0;7.197332382E0
2.558269309E1;-7.907920480E-1;6.320372105E0;6.011403084E0
2.574101810E1;-3.332147598E-1;-2.105968475E0;-2.199366093E0
2.575874448E1;-3.692438602E-1;4.543389797E0;-4.051242828E0
2.577646201E1;-3.830375195E0;2.884495258E0;-2.279095650E0
2.579419315E1;-7.427927494E0;-5.915485382E0;1.030034065E1
2.581191336E1;-4.337790012E0;-7.771454811E0;1.753934479E1
2.582963382E1;-1.742702007E0;-8.876935959E0;2.129113913E0
2.584735581E1;-6.193325043E0;-7.538459301E0;7.102274895E-1
2.586508390E1;-2.666916847E0;4.163018227E0;8.923311234E0
2.588280966E1;5.806665421E0;7.335063934E0;1.257904434E1
2.590053006E1;9.749775887E0;-1.606445312E0;9.623991013E0
2.591825302E1;6.869948387E0;-7.068042755E0;4.877154827E0
2.593597714E1;5.593465805E0;-5.264006615E0;-3.950943947E-1
2.595370572E1;1.107034326E0;-1.220586777E0;1.966917515E0
2.597142276E1;-3.450128794E0;9.329295158E-1;4.187102795E0
2.598914890E1;-5.259710312E0;1.896526337E0;2.933321953E0
2.600686563E1;-3.478150845E0;2.380668640E0;2.269860983E0
2.602459372E1;-1.217993975E0;1.738584518E0;2.499510527E0
2.604230673E1;3.828870058E-1;8.603086472E-1;2.121219158E0
2.606004477E1;1.585536718E0;5.749664307E-1;1.315725327E0
2.607775913E1;1.881089211E0;3.113536835E-1;9.291719198E-1
2.609548441E1;8.092405796E-1;9.488449097E-1;1.192608118E0
2.611321335E1;-1.481409788E0;1.039448738E0;1.072374821E0
2.613093350E1;-1.395888448E0;1.250807762E0;-1.314756870E-1
2.614866025E1;-9.199782610E-1;8.305740356E-1;2.311073542E-1
2.616638309E1;-5.912760496E-1;-1.904668808E-1;1.102418900E-1
2.618410141E1;-8.778280020E-2;2.318754196E-1;-8.325220346E-1
2.620181571E1;-6.133780479E-1;-2.819252014E-2;-1.471308947E0
2.621955063E1;-7.398235202E-1;-1.648075104E0;-1.525588989E0
2.623727573E1;8.702939749E-1;-2.497289658E0;-1.570208073E0
2.625499851E1;2.256256580E0;-3.096123695E0;-2.252368450E0
2.627272080E1;3.101002574E-1;-2.915590286E0;-3.940445662E0
2.629044412E1;-1.916440248E0;-2.504256248E0;-5.758620262E0
2.630816855E1;1.024180651E0;-3.240841866E0;-4.963261127E0
2.632589072E1;6.270449638E0;-3.765973091E0;-4.420950890E0
2.634361411E1;5.246853828E0;-3.263116837E0;-4.309576988E0
2.636133572E1;2.946439266E0;-2.149058342E0;-5.735271573E-1
2.637905625E1;1.976289153E0;-1.756692886E0;7.795154572E0
2.639678415E1;-1.762975812E0;-6.019412994E0;8.004800797E0
2.641450760E1;-2.867915154E0;-9.203523636E0;-1.431384802E0
2.643223215E1;-2.420614004E0;-8.872529030E0;2.280529976E0
2.644995731E1;-3.990600109E0;-6.960774422E0;3.557531357E0
2.646767752E1;-5.845726013E0;-4.516255379E0;5.252853870E0
2.648540091E1;-5.931688309E0;-2.174715996E0;4.382251740E0
2.650312338E1;-3.737812519E0;-7.847537994E-1;3.750131369E0
2.652083597E1;1.372008920E-1;3.584432602E-1;3.282304287E0
2.653857273E1;2.712173939E0;7.696771622E-1;5.056968689E0
2.655629447E1;4.132937908E0;1.355101109E0;6.917842865E0
2.657401767E1;2.346519709E0;2.160450935E0;7.964890003E0
2.659174094E1;-1.038248911E-1;4.057208538E0;9.170618057E0
2.660944553E1;-2.509849787E0;5.299947739E0;9.817930222E0
2.662719107E1;-2.585275173E0;5.156860828E0;9.540890694E0
2.664491141E1;-9.753844738E-1;4.884744644E0;8.634979248E0
2.666263175E1;-4.435751438E-1;4.647493362E0;7.249143600E0
2.668035062E1;-4.204638600E-1;4.055778027E0;4.794879436E0
2.669808115E1;5.808432102E-1;2.511913300E0;1.401649475E0
2.671580771E1;9.019051194E-1;-6.434001923E-1;-3.451348305E0
2.673352927E1;-8.591969609E-1;-5.701569557E0;-8.822598457E0
2.675125144E1;-4.333605766E0;-1.122462273E1;-8.079061508E0
2.676897574E1;-3.982466698E0;-1.077162933E1;-5.495957851E0
2.678668125E1;5.325686932E-2;-3.836609840E0;-1.634177685E0
2.680442270E1;8.308212757E-1;2.018879890E0;-2.067131519E0
2.682214340E1;1.150853634E-1;3.688046455E0;-2.065330029E0
2.683986814E1;-4.340667725E0;-4.043836594E0;9.156465530E-1
2.685759189E1;-6.448476315E0;-9.048948288E0;8.870082855E0
2.687530277E1;-2.882529020E0;-7.406228542E0;9.233692169E0
2.689303812E1;-5.652623177E0;-4.296005726E0;7.220673561E-1
2.691076059E1;-2.600212097E0;3.592219114E0;1.220858097E1
2.692848941E1;4.248709202E0;5.812128544E0;8.646577835E0
2.694620828E1;8.045815468E0;-2.085225105E0;9.804454803E0
2.696393173E1;6.244905472E0;-7.497013092E0;8.305873871E0
2.698165512E1;3.390324593E0;-6.677572250E0;-4.171066284E-1
2.699938462E1;5.019396544E-1;-2.289869308E0;2.135805845E0
2.701710263E1;-2.030105829E0;8.289003372E-1;5.393904686E0
2.703482535E1;-3.408556938E0;1.201791763E0;4.386919975E0
2.705254373E1;-2.967731476E0;1.205066681E0;3.225991249E0
2.707027194E1;-1.534622312E0;1.386157990E0;2.702231884E0
2.708799661E1;-2.359875739E-1;1.106254578E0;2.403962374E0
2.710572830E1;7.179048657E-1;8.628568649E-1;1.809207439E0
2.712344089E1;1.407653093E0;7.982368469E-1;8.990796804E-1
2.714116580E1;1.786812305E0;1.032169342E0;6.027953625E-1
2.715888876E1;1.233516574E0;1.153195381E0;4.579371214E-1
2.717661209E1;9.310675263E-1;1.402812004E0;4.573794603E-1
2.719433444E1;4.064412117E-1;1.342176437E0;6.843003035E-1
2.721205887E1;-8.587007523E-1;7.082881927E-1;5.517641902E-1
2.722978214E1;-1.952307940E0;3.470373154E-1;-6.289869547E-1
2.724750565E1;-1.311926007E0;1.175563812E0;-1.160462856E0
2.726522666E1;-3.767571747E-1;-5.086355209E-1;-2.183207273E0
2.728295285E1;9.974857569E-1;-2.740209579E0;-1.518233538E0
2.730067588E1;2.376371861E0;-2.392200470E0;-5.971255898E-1
2.731839676E1;2.151327610E0;-2.993346214E0;-2.032560349E0
2.733612119E1;-3.954587579E-1;-3.189049721E0;-3.878069162E0
2.735383383E1;-1.113538027E0;-2.680496216E0;-4.643058300E0
2.737156894E1;3.530196667E0;-3.422580719E0;-3.417166233E0
2.738929544E1;7.163649082E0;-4.211637497E0;-4.346327305E0
2.740701602E1;4.173672676E0;-4.064619064E0;-2.695664167E0
2.742473441E1;3.980646133E-1;-3.135334969E0;-1.736300945E0
2.744246775E1;-1.316000700E0;-1.643942833E0;2.611098528E0
2.746018875E1;-2.645437002E0;-2.899158478E0;9.046146393E0
2.747790952E1;-3.440368652E0;-5.647106171E0;1.422362089E0
2.749562680E1;-1.547979593E0;-7.201274872E0;4.990773201E-1
2.751335025E1;-3.064848423E0;-6.384672165E0;2.434718132E0
2.753107913E1;-4.861659050E0;-4.723576546E0;3.369602442E0
2.754880545E1;-4.800719738E0;-2.514949799E0;3.994263411E0
2.756652616E1;-3.621977091E0;-6.012468338E-1;3.449575663E0
2.758424747E1;-5.028399229E-1;4.103565216E-1;3.428039789E0
2.760196225E1;1.936686277E0;3.749637604E-1;3.913773537E0
2.761969608E1;3.430874348E0;6.160273552E-1;5.892653942E0
2.763741947E1;2.826282024E0;1.364820004E0;6.945709229E0
2.765514151E1;6.946817040E-1;2.533836365E0;7.428412914E0
2.767286661E1;-1.495265484E0;4.075523376E0;8.614846230E0
2.769058939E1;-2.464498043E0;4.675258636E0;9.137578964E0
2.770830081E1;-1.152915716E0;4.863119125E0;9.040250778E0
2.786514432E1;8.793389797E-1;-1.167727470E0;-1.205441284E1
2.788287003E1;-2.728774548E0;-8.517095566E0;-1.452309132E1
2.790059573E1;-2.676894665E0;-1.373551846E1;-1.189564133E1
2.791832010E1;1.679031849E-1;-7.503126144E0;-6.990440369E0
2.793604233E1;1.128980994E0;2.884777546E0;-8.576483727E0
2.795376596E1;6.469552517E-1;6.696635246E0;-8.343682289E0
2.797148679E1;-1.840286255E0;-9.350137711E-1;-2.792765141E0
2.798921243E1;-3.991163492E0;-7.159747124E0;6.773701668E0
2.800693857E1;-6.430811882E-1;-5.325656891E0;6.653907776E0
2.802466086E1;-4.413391590E0;-2.913024902E0;-5.363986969E0
2.804238260E1;7.081377506E-1;5.924096107E0;6.035219669E0
2.806010166E1;8.658170700E0;7.880475998E0;4.591682434E0
2.807782840E1;1.164539814E1;-7.595500946E-1;5.194212437E0
2.809555289E1;8.527290344E0;-6.670782089E0;2.180486441E0
2.811327615E1;5.630409241E0;-6.053801537E0;-6.615690231E0
2.813098807E1;3.404499531E0;-8.187036514E-1;-2.451528072E0
2.814872415E1;1.647983551E0;2.341532230E0;1.198653698E0
2.816644144E1;9.920811653E-2;2.250278950E0;-6.824889183E-1
2.818416977E1;1.770994663E-1;1.763132095E0;-1.326096177E0
2.820189590E1;2.036620140E0;1.760001183E0;-1.899097919E0
2.821961746E1;3.740053654E0;1.139643669E0;-2.208858013E0
2.823734287E1;4.717776775E0;6.160449982E-1;-2.342808008E0
2.825505869E1;4.996496201E0;4.508991241E-1;-2.983222008E0
2.827278647E1;4.493348598E0;7.233057022E-1;-2.961716175E0
2.829050974E1;3.793498039E0;8.849678040E-1;-2.780642748E0
2.830822153E1;3.509167910E0;5.395669937E-1;-2.891646862E0
2.832595840E1;2.979116201E0;-9.199333191E-2;-3.695285559E0
2.834367917E1;2.070415020E0;-9.898672104E-1;-4.176041126E0
2.836140103E1;2.097686768E0;-9.952325821E-1;-5.007610798E0
2.837912680E1;3.114970207E0;-6.108140945E-1;-5.887174129E0
2.839684793E1;3.977502346E0;-2.225697517E0;-6.021587372E0
2.841457767E1;5.211927891E0;-3.630658150E0;-5.437162399E0
2.843229715E1;6.506235123E0;-4.291699409E0;-5.494402409E0
2.845002103E1;6.219311714E0;-4.420392036E0;-6.789261818E0
2.846773697E1;4.029993057E0;-3.921725273E0;-7.859951019E0
2.848546665E1;4.615647793E0;-5.199688911E0;-8.237781525E0
2.850319150E1;8.577968597E0;-5.834858894E0;-7.485419750E0
2.852091483E1;9.329122543E0;-5.110505104E0;-6.428697586E0
2.853863236E1;5.538107872E0;-4.527714729E0;-5.061738014E0
2.855636044E1;2.623915195E0;-3.111532211E0;-2.190033436E0
2.857407211E1;1.854886293E0;-3.431768417E0;6.970221519E0
2.859181058E1;5.507719517E-1;-7.072042465E0;-1.561689019E0
2.860953079E1;2.433650017E0;-9.134311676E0;-5.237944126E0
2.862725101E1;7.437551022E-1;-8.057614326E0;-1.261612058E0
2.864497427E1;-1.989638090E0;-5.669124603E0;-4.170551300E-1
2.866270175E1;-2.184796572E0;-2.412796974E0;7.303254008E-1
2.868042343E1;1.125040054E-1;1.696310043E-1;-3.363074064E-1
2.869814652E1;4.009576321E0;1.664982796E0;-7.051957846E-1
2.871586807E1;6.118235588E0;1.872806549E0;4.215255976E-1
2.873359641E1;7.537777901E0;2.630363941E0;2.262186050E0
2.875131760E1;6.433654308E0;3.391076088E0;3.450582266E0
2.876903983E1;3.972369909E0;4.719792843E0;4.246370316E0
2.878676968E1;1.114163637E0;6.081502438E0;5.369709015E0
2.880448789E1;2.195000648E-1;6.584631443E0;5.665155411E0
2.882221121E1;1.536418676E0;6.480410576E0;4.976331711E0
2.898133849E1;-2.803404808E0;-8.204662323E0;-1.307468319E1
2.899905706E1;1.175780296E-1;-6.532815933E0;-9.094045639E0
2.901677562E1;4.350893021E0;-1.113733292E0;-5.656088352E0
2.903451177E1;3.960090637E0;3.042341232E0;-6.640648365E0
2.905223204E1;1.112754345E0;2.559681892E0;-6.952741623E0
2.906995287E1;-3.856910467E0;-5.474993706E0;6.819530725E-1
2.908767888E1;-3.675173521E0;-8.336388588E0;8.233989716E0
2.910540239E1;-6.570193768E-1;-4.921168327E0;2.236408472E0
2.912312566E1;-3.964936495E0;9.561538696E-3;7.249553204E-1
2.914084899E1;8.002257347E-2;6.733574867E0;4.520502090E0
2.915857128E1;8.912195206E0;5.738356590E0;7.440475464E0
2.917629577E1;1.130510902E1;-3.334042549E0;7.221301079E0
2.919401940E1;9.010584831E0;-6.274366379E0;1.366557598E0
2.921174370E1;5.662759304E0;-4.716238976E0;-6.074717999E0
2.922946721E1;1.978698492E0;-1.298046112E-1;-2.740265131E-1
2.924718560E1;1.559979916E-1;2.259941101E0;1.761270761E0
2.926491301E1;-6.463761330E-1;2.258659363E0;2.308696508E-2
2.928263439E1;6.215209961E-1;2.315632820E0;-7.856513858E-1
2.930035729E1;2.340047836E0;1.824316025E0;-1.221935749E0
2.931808574E1;3.935128212E0;1.141675949E0;-1.051881790E0
2.933579772E1;4.442778111E0;6.026754379E-1;-1.384558320E0
2.935353270E1;4.274613380E0;8.729324341E-1;-1.605329514E0
2.937124083E1;3.506365299E0;1.176300049E0;-1.979210615E0
2.938897942E1;3.328658819E0;1.200173378E0;-1.671824336E0
2.940670006E1;3.289890289E0;8.469018936E-1;-1.773259759E0
2.942442302E1;2.329050303E0;2.468290329E-1;-2.223916054E0
2.944214684E1;1.071481943E0;-5.592470169E-1;-3.196519852E0
2.945986907E1;1.793905497E0;-5.644731522E-1;-4.004618168E0
2.947759252E1;3.090515614E0;-1.155203819E0;-5.094076633E0
2.949531725E1;3.971470833E0;-3.086936951E0;-4.873158932E0
2.951304039E1;5.611921310E0;-3.586722374E0;-4.203817368E0
2.953076488E1;6.472712994E0;-3.956756592E0;-4.782470226E0
2.954848723E1;4.104175091E0;-4.214937210E0;-6.699851990E0
2.956621129E1;1.470242500E0;-4.037777901E0;-7.447489738E0
2.958392131E1;4.218588829E0;-5.112737656E0;-6.668188572E0
2.960165880E1;8.995923996E0;-5.264301300E0;-6.694451809E0
2.961938097E1;8.252950668E0;-4.536831856E0;-5.412287235E0
2.963710436E1;4.662459373E0;-3.535310745E0;-4.084800720E0
2.965482506E1;2.161393642E0;-2.216928482E0;8.404254913E-3
2.967253569E1;1.349123359E0;-3.648843765E0;8.189194679E0
2.969027452E1;1.198763013E0;-6.923620224E0;-2.522034883E0
2.970799797E1;2.311034441E0;-8.142927170E0;-2.925152063E0
2.972572252E1;3.448843956E-2;-6.865197182E0;1.964651942E-1
2.974344591E1;-2.280109882E0;-4.432638168E0;1.164287686E0
2.976116808E1;-2.152271032E0;-1.425127983E0;1.794399500E0
2.977889428E1;6.355023384E-2;4.847965240E-1;8.141473532E-1
2.979661608E1;3.910976410E0;1.739995956E0;3.281123638E-1
2.981433727E1;6.131025791E0;1.854897499E0;1.650071144E0
2.983206047E1;7.392202377E0;2.417171001E0;3.685003757E0
2.984978044E1;5.628664970E0;3.145064354E0;4.348158836E0
2.986750847E1;3.145275593E0;4.774316788E0;5.069456100E0
2.988523210E1;8.334791660E-1;6.098482609E0;5.998401165E0
2.990295269E1;2.498214245E-1;6.110072136E0;5.935375690E0
2.992067864E1;1.713928461E0;5.932066917E0;5.435450077E0
2.993839776E1;2.319116116E0;5.814801216E0;4.046508789E0
2.995612859E1;2.061996222E0;5.075299263E0;1.709855676E0
2.997384410E1;2.689006329E0;3.663569450E0;-1.281733751E0
2.999157067E1;2.249726057E0;1.450326920E0;-4.017867088E0
3.000929583E1;8.171257973E-1;-2.752864838E0;-1.059054184E1
3.002701305E1;-1.753825903E0;-9.123389244E0;-1.315580559E1
3.004473973E1;-2.188324690E0;-1.000990582E1;-1.150420952E1
3.006246697E1;9.500269890E-1;-3.479990959E0;-6.265419006E0
3.008018639E1;2.657207489E0;2.408954620E0;-6.093896866E0
3.009791271E1;2.958765507E0;5.790277481E0;-6.063687801E0
3.011563610E1;-9.670348167E-1;1.800477982E0;-3.949304819E0
3.013335955E1;-3.295952559E0;-4.829846382E0;6.455811501E0
3.015108287E1;-3.818750381E-1;-5.691237450E0;1.206488895E1
3.016879497E1;-8.566992283E-1;-8.685036659E0;-5.039298058E0
3.018652996E1;-5.006877422E0;-3.329416275E0;-2.126050234E0
3.020425316E1;7.096977234E-1;8.442858696E0;7.845734596E0
3.022197673E1;9.435665131E0;7.430440903E0;7.822540283E0
3.023969988E1;1.031911564E1;-3.480144501E0;5.649400711E0
3.025742461E1;7.872724056E0;-6.683023453E0;1.160694599E0
3.027513890E1;6.299386978E0;-3.794594765E0;-6.980339050E0
3.029286919E1;2.908532858E0;1.922359467E-1;-3.068138361E-1
3.031059246E1;1.059236765E0;2.357731819E0;1.638916254E0
3.032831822E1;-1.461064816E-1;2.657753468E0;2.426600158E-1
3.034603679E1;1.269035459E0;2.635074615E0;-7.609331608E-1
3.036376549E1;2.113433361E0;1.755059719E0;-1.483632445E0
3.038148809E1;2.989483595E0;9.984340668E-1;-1.357678294E0
3.039921056E1;3.790958405E0;5.698852539E-1;-1.690891743E0
3.041692473E1;3.390272856E0;7.521896362E-1;-1.874242663E0
3.043465709E1;3.120372772E0;1.450790405E0;-1.444075942E0
3.045238079E1;2.657665491E0;1.308621407E0;-1.536215782E0
3.047010112E1;1.798583388E0;3.751268387E-1;-2.985153437E0
3.048782341E1;1.188147902E0;-8.448085785E-1;-3.586700678E0
3.050554979E1;2.178680420E0;-1.070391655E0;-3.917266130E0
3.052327752E1;3.475497484E0;-1.211122513E0;-4.296330452E0
3.054099797E1;3.463819265E0;-2.771762848E0;-4.489397526E0
3.055872026E1;3.859634399E0;-2.983636856E0;-4.356425285E0
3.057644542E1;5.188002586E0;-3.003703117E0;-5.051373959E0
3.059415526E1;5.452233315E0;-3.573292732E0;-6.232074738E0
3.061189129E1;4.087505341E0;-3.823554039E0;-7.210894585E0
3.062961724E1;5.839312077E0;-5.269883156E0;-7.519813538E0
3.064732903E1;9.834929466E0;-5.888073921E0;-6.465413094E0
3.066505510E1;8.422884941E0;-5.727571487E0;-5.091494560E0
3.068277892E1;3.668067217E0;-4.045843124E0;-4.695652008E0
3.070050963E1;-1.563835144E-1;-2.516835213E0;-2.303522110E0
3.071823186E1;-3.928134441E-1;-5.229945183E0;4.954674244E0
3.073595452E1;2.712509632E0;-9.236588478E0;1.196656108E0
3.075367864E1;3.960316181E0;-9.304641724E0;-2.657953262E0
3.077139012E1;4.078564644E-1;-7.236304283E0;-7.545179725E-1
3.078912645E1;-2.024973154E0;-4.910129547E0;1.905481696E0
3.080684789E1;-8.028976917E-1;-1.819325447E0;2.689059258E0
3.082457006E1;1.404352903E0;-1.419734955E-2;1.226111650E0
3.084228417E1;2.944800854E0;8.421955109E-1;1.690672040E0
3.086000725E1;4.122438431E0;1.397460461E0;3.178151846E0
3.087774334E1;5.794100761E0;2.096738815E0;4.385579109E0
3.089546697E1;4.850725174E0;2.715488434E0;5.336067200E0
3.091318908E1;3.047821760E0;4.641022682E0;6.363022804E0
3.093091277E1;1.552610636E0;6.358967304E0;6.854924202E0
3.094863146E1;1.492585182E0;7.107639313E0;7.107482433E0
3.110474222E1;1.414550543E0;-1.287220955E0;-2.838224411E0
3.112246591E1;1.546097040E0;4.404652596E0;-3.969771385E0
3.114018930E1;2.062942028E0;5.607382298E0;-1.775119781E0
3.115791043E1;-2.708718300E0;-3.106455326E0;8.229122162E-1
3.117563650E1;-8.653742790E0;-1.321397781E1;8.800702095E0
3.119335812E1;-4.153811455E0;-1.104924583E1;8.495033264E0
3.121108292E1;-5.223023415E0;-2.799506664E0;-8.724427223E-1
3.122880496E1;-5.554606438E0;7.300665379E0;1.279018974E1
3.124652988E1;-3.403137922E-1;1.029728508E1;4.492567062E0
3.126425326E1;7.476378918E0;-2.448310852E-1;9.943979263E0
3.128197360E1;1.010736561E1;-8.890651703E0;9.984008789E0
3.129969571E1;7.628241539E0;-8.459283829E0;-4.983973503E-1
3.131742349E1;2.474637985E0;-3.549649239E0;-3.323225498E0
3.133514682E1;-1.715167522E0;1.366850853E0;3.256600857E0
3.135287027E1;-3.892851591E0;2.545947552E0;4.841624737E0
3.137058975E1;-3.926809788E0;1.557097435E0;2.919624805E0
3.138831820E1;-1.830437303E0;1.022705078E0;2.367266178E0
3.140602939E1;1.213796288E-1;3.065795898E-1;2.464629173E0
3.142376657E1;1.140390635E0;1.006660461E-1;2.129500389E0
3.144148630E1;3.417468071E-1;6.060609818E-1;2.067279577E0
3.145920999E1;-8.040633798E-1;1.339676857E0;1.767171979E0
3.147693399E1;-1.664495349E0;1.482761383E0;8.379492760E-1
3.149465585E1;-1.116375208E0;1.397460938E0;7.322409153E-1
3.151238376E1;-3.515900373E-1;8.671941757E-1;7.969313860E-1
3.153010318E1;-5.356231332E-1;1.846027374E-1;6.481106281E-1
3.154782571E1;-1.270255327E0;2.774658203E-1;-1.578038931E-1
3.156555112E1;-1.284278393E0;1.190811157E0;-1.684117794E0
3.158327060E1;-7.306131124E-1;1.106067657E0;-2.107736349E0
3.160099795E1;-2.945552468E-1;-5.212125778E-1;-1.542678237E0
3.161872244E1;3.229300380E-1;-1.295083046E0;-1.222915053E0
3.163644302E1;2.059856653E0;-9.306221008E-1;-1.037423849E0
3.165416836E1;3.637115479E0;-1.667019844E0;-2.063829422E0
3.167188687E1;2.594118595E0;-2.393508911E0;-3.271400452E0
3.168961770E1;7.674793005E-1;-2.323807716E0;-4.455027580E0
3.170733951E1;1.233825088E0;-2.569792747E0;-4.575704575E0
3.172506308E1;3.811473846E0;-3.096031189E0;-3.850998402E0
3.174278518E1;4.171418190E0;-3.723269463E0;-3.032820702E0
3.176049918E1;1.881159067E0;-2.987716675E0;-2.142923594E0
3.177823526E1;-8.420227766E-1;-2.119853020E0;-1.035114050E0
3.179595572E1;-2.938105822E0;-2.619723320E0;3.145726204E0
3.181367117E1;-3.120150566E0;-4.599602699E0;8.344140053E0
3.183140250E1;-2.883113861E0;-6.817093849E0;2.208201170E0
3.184912607E1;-1.727272272E0;-7.397304535E0;3.253636360E-1
3.186684909E1;-2.680162907E0;-6.408412933E0;8.200051785E-1
3.188457260E1;-3.247438431E0;-4.253850937E0;3.545287132E0
3.190229398E1;-2.516918898E0;-1.677168846E0;4.047098160E0
3.192001962E1;-1.743292570E0;-4.617547989E-1;3.093413830E0
3.193774301E1;1.840237975E-1;8.827114105E-2;3.141978741E0
3.195546524E1;1.325796247E0;4.462428093E-1;4.819922924E0
3.197317953E1;2.301117897E0;1.015481472E0;5.735964775E0
3.199091312E1;1.138184786E0;1.811043739E0;6.616389275E0
3.200863730E1;-7.035617232E-1;3.045320511E0;7.377562523E0
3.202636258E1;-2.330653906E0;3.826988220E0;7.901633263E0
3.204407870E1;-2.664279938E0;3.898559093E0;7.869197845E0
3.206180636E1;-1.454989195E0;4.054046631E0;7.758219719E0
3.207953006E1;-7.332578897E-1;4.464221001E0;6.734092236E0
3.209725497E1;-1.153368354E0;4.648933411E0;4.762131214E0
3.211497531E1;-1.108920336E0;3.928406715E0;2.637553692E0
3.213269638E1;2.339437604E-2;2.437898159E0;6.124024391E-1
3.215041067E1;-4.413177073E-1;3.257431984E-1;-2.264049530E0
3.216815152E1;-1.826347470E0;-3.611515045E0;-1.082714748E1
3.218587070E1;-1.852943301E0;-9.271273613E0;-1.339021778E1
3.220359390E1;1.364754736E-1;-1.004838276E1;-2.578769207E0
3.222131888E1;1.760866404E0;-3.905726433E0;-4.167223454E0
3.223903177E1;1.477083087E0;1.980951309E0;-5.869689941E0
3.225676462E1;-1.645979881E-1;5.966038704E-1;1.281552315E-1
3.227448691E1;-5.371860981E0;-6.375909328E0;5.741990566E0
3.229220834E1;-9.338497162E0;-1.267098141E1;6.017427444E0
3.230993466E1;-2.910832167E0;-5.205340385E0;4.123249054E0
3.232765396E1;-4.184763908E0;3.916306734E0;1.315663719E1
3.234537973E1;-3.797856569E0;7.956016064E0;6.113252163E0
3.236308700E1;1.926795483E0;1.475652695E0;4.609212875E0
3.238082852E1;7.726151943E0;-5.964922905E0;1.309376621E1
3.239855301E1;6.527325153E0;-7.114559174E0;4.808532715E0
3.241627035E1;2.364671230E0;-5.520323753E0;-2.605534554E0
3.243399747E1;-1.276457310E0;-1.581350327E0;2.270493746E0
3.245172104E1;-2.470700026E0;9.839010239E-1;4.434885025E0
3.246944241E1;-2.591237783E0;1.131999016E0;3.585196733E0
3.248716904E1;-1.479105949E0;3.057165146E-1;2.264046669E0
3.250489224E1;2.735210955E-1;-1.331577301E-1;2.055195808E0
3.252261892E1;2.095199347E0;6.148242950E-1;3.321592331E0
3.254032986E1;1.539410591E0;7.293157578E-1;3.108632326E0
3.255806302E1;-2.232814431E-1;6.822214127E-1;1.933129549E0
3.257578482E1;-8.849126697E-1;1.238159180E0;1.502199173E0
3.259350961E1;-6.008902788E-1;1.810404778E0;1.466290116E0
3.261123300E1;-8.798055649E-1;1.395304680E0;7.891432047E-1
3.262895639E1;-1.435241461E0;7.057275772E-1;6.791790724E-1
3.264667496E1;-1.723175526E0;4.170589447E-1;3.080095053E-1
3.266440292E1;-1.470441580E0;3.370428085E-1;7.551586628E-2
3.268212637E1;-8.224562407E-1;2.858438492E-1;9.426972270E-1
3.269985141E1;-1.527040005E-1;1.241504669E0;-1.431316137E-2
3.271756235E1;4.243289232E-1;8.211050034E-1;-1.310494661E0
3.273529611E1;-6.023400426E-1;-6.830606461E-1;-1.301457167E0
3.275302042E1;1.668068767E-1;-1.311784744E0;-1.128616452E0
3.277074197E1;2.538308501E-1;-1.259612083E0;-9.811735153E-1
3.278846591E1;-4.081851244E-2;-1.482644081E0;-7.127141356E-1
3.280619736E1;-1.256143212E0;-2.164610863E0;-1.223034382E0
3.282391214E1;-1.207075715E0;-1.435707092E0;-2.031686068E0
3.284163681E1;7.684540749E-2;-1.889213562E0;-1.964008093E0
3.285935715E1;3.238861322E0;-2.179604530E0;-2.912413120E0
3.287708316E1;4.246432781E0;-5.358432770E0;-1.640805483E0
3.289479672E1;2.604863167E0;-2.640359879E0;-1.692377567E0
3.291253268E1;-7.633707523E-1;-9.919137955E-1;-1.825205088E0
3.293025455E1;-3.000296116E0;-1.564354897E0;-1.906014919E0
3.294797781E1;-3.417807102E0;-3.165921211E0;2.403637886E0
3.296569717E1;-7.131485343E-1;-4.437313080E-1;3.625756979E0
3.298341385E1;-7.000166178E-2;-2.891547203E0;4.526329994E0
3.300115005E1;-1.133254766E0;-6.816453934E0;4.804518223E0
3.301886716E1;-9.202299118E-1;-5.136383057E0;3.260359287E0
3.303659543E1;-8.977689743E-1;-1.683366776E0;2.293976307E0
3.305431967E1;-2.459241629E0;-3.942966461E-2;3.182458639E0
3.307204288E1;-3.662384033E0;3.592748642E-1;3.631319046E0
3.308976553E1;-3.651562691E0;-3.677558899E-2;3.806552172E0
3.310748770E1;-2.595569372E0;-1.110105515E-1;3.901485443E0
3.312521188E1;-9.792596102E-1;4.577827454E-2;4.065618038E0
3.314293558E1;6.105109453E-1;-2.638645172E-1;4.868736267E0
3.316065268E1;9.124146700E-1;2.397632599E-2;6.069149971E0
3.317838241E1;3.233923018E-2;1.189399719E0;6.772364616E0
3.319610586E1;-9.976523519E-1;2.146851063E0;6.566931248E0
3.321382950E1;-1.420333982E0;3.420099735E0;5.181301594E0
3.323155282E1;-1.217325687E0;2.200553894E0;4.916650295E0
3.324927499E1;2.745988965E-1;9.602370262E-1;3.378765821E0
3.326699960E1;1.205076933E0;7.857875824E-1;4.140660763E0
3.328472305E1;-1.385651112E0;-5.508270264E-1;1.760610819E0
3.330244522E1;-3.527788639E0;-1.238862991E0;-2.483248711E-1
3.332015805E1;-3.307034731E0;-1.161867142E0;-3.346314430E-1
3.333789340E1;-6.065490842E-1;9.254503250E-1;6.740522385E-2
3.335561654E1;1.886191845E0;1.962435722E0;-2.659034729E-2
3.337334128E1;2.919991255E0;8.675813675E-1;-4.442405701E-2
3.339106375E1;1.962757349E0;-6.340932846E-1;3.515865803E-1
3.340878696E1;9.021164179E-1;-2.583208084E-1;1.470708847E-1
3.342651053E1;6.263941526E-2;8.428544998E-1;-1.339905262E-1
3.344423495E1;-8.977208734E-1;-6.834697723E-1;2.772771120E0
3.346194546E1;-1.569016218E0;-3.165365219E0;5.122941017E0
3.347967575E1;-2.896045208E0;-4.235878944E0;2.992477894E0
3.349740439E1;-4.151687622E0;-4.380874634E0;1.292498350E0
3.351512454E1;-4.179805279E0;-3.799634933E0;-9.136962891E-2
3.353285092E1;-1.858202577E0;7.792806625E-1;-1.929690838E-1
3.355057016E1;-9.010497928E-1;2.199390411E0;3.961362839E0
3.356829916E1;-6.427529454E-1;3.621559143E-1;5.470116615E0
3.358602151E1;-1.876801252E-1;-3.757667542E-2;4.520574570E0
3.360374417E1;9.120444655E-1;1.530878067E0;2.959613800E0
3.362146689E1;8.700211048E-1;-1.730007172E0;5.527257919E0
3.363918222E1;5.778927207E-1;-4.653544426E0;4.314019203E0
3.365691495E1;1.183266521E0;-3.575557709E0;1.721845865E0
3.367463901E1;1.139412761E0;-2.826159477E0;6.485738754E-1
3.369235678E1;6.915088892E-1;-3.020729065E0;1.992963552E-1
3.371008511E1;4.788169265E-2;-5.297822952E-1;1.334514976E0
3.372780820E1;-2.349002123E0;2.037181854E-1;1.141756535E0
3.374553305E1;-3.366109848E0;-1.367305756E0;1.373413920E0
3.376325082E1;-3.329672813E0;-2.913003922E0;1.541036367E0
3.378097903E1;-3.495614052E0;-3.477447510E0;3.976287544E-1
3.379869809E1;-3.012107134E0;-2.767498016E0;7.145619392E-1
3.381642550E1;-1.948352098E0;-2.734541893E0;2.002408504E0
3.383414932E1;1.024809480E0;-1.852962494E0;1.638420582E0
3.385187143E1;4.039111614E0;-4.061555862E0;1.034689713E1
3.386959628E1;4.072378635E0;-3.234552383E0;2.272463739E-1
3.388732089E1;4.847164154E-1;-1.484957695E0;-3.477963448E0
3.390504672E1;-1.646546245E0;-2.606447220E0;7.703905702E-1
3.392276419E1;-1.720120549E0;-3.134437561E0;2.639398813E0
3.394048965E1;-1.948567748E0;-2.910367012E0;4.272041321E0
3.395821036E1;-1.299952507E0;-2.881408691E0;4.862820506E-1
3.397593686E1;-1.267554522E0;-2.018849373E0;5.436737061E0
3.399365634E1;8.280155659E-1;-2.543417931E0;1.242543221E0
3.401137204E1;1.042747974E0;-9.041986465E-1;-3.038836718E0
3.402909506E1;4.032519341E0;7.105455399E-1;-5.104061127E0
3.404683359E1;4.842942238E0;2.197737217E0;-7.870064735E0
3.406455380E1;4.767576694E0;2.215372086E0;4.222109318E-1
3.408227719E1;4.294240475E0;1.650066376E0;-5.611944199E-1
3.410000058E1;3.781222105E0;1.987921238E0;1.145875931E0
3.411771341E1;2.983439445E0;1.313254833E0;1.772211075E0
3.413544662E1;1.961534977E0;1.258296490E0;1.175722122E0
3.415317080E1;9.089356661E-1;1.459647655E0;8.166809082E-1
3.417087997E1;-1.401309967E-1;1.201203346E0;5.179681778E-1
3.418861563E1;-7.640346289E-1;6.232051849E-1;1.717681885E0
3.420633462E1;-8.896079063E-1;3.545818329E-1;2.137180805E0
3.422405337E1;-1.221334696E0;1.337018013E-1;1.169736385E0
3.424178689E1;-2.044238329E0;1.587815285E-1;-6.805686951E-1
3.425950882E1;-3.239876747E0;-3.407735825E-1;-1.697629452E0
3.427723520E1;-4.289711952E0;-1.290285110E0;-5.463762283E-1
3.429494736E1;-4.578441620E0;-2.469851971E0;-9.005775452E-1
3.431267831E1;-3.886548042E0;-2.557085752E0;-2.178431034E0
3.433040536E1;-3.069114685E0;-1.452147484E0;-1.258437634E0
3.434812869E1;-2.951225042E0;-9.758970737E-1;-2.171831131E-1
3.436584750E1;-3.036046743E0;-1.655134201E0;-5.718021393E-1
3.438356381E1;-7.372163534E-1;-3.483714342E0;9.006619453E0
3.440130160E1;-1.459803581E-1;-4.505536079E0;3.404649734E0
3.441902353E1;-5.567185283E-1;-3.876820564E0;-2.079895020E0
3.443674618E1;-1.165267467E0;-2.811345816E0;-3.279514313E-1
3.445446823E1;-2.505669594E0;-2.729912996E0;-1.934370518E0
3.447219253E1;-3.447032452E0;-3.389915466E0;-3.902087688E0
3.448991641E1;-3.931774855E0;-4.020575523E0;-4.171180248E0
3.450763711E1;-3.385178328E0;-3.141240835E0;-3.360947609E0
3.452536294E1;-2.362333059E0;-1.452085853E0;-3.561332226E0
3.454308646E1;-1.665497780E0;-6.035578251E-1;-4.480487347E0
3.456080966E1;-1.741968393E0;-1.499021888E0;-5.191140175E0
3.457853409E1;-2.261836529E0;-4.101577759E0;-3.694854259E0
3.459625577E1;-2.782104969E0;-5.468900681E0;-1.537940502E0
3.461397696E1;1.526577950E0;-3.292919636E0;1.274728775E0
3.463169815E1;7.383728981E0;-4.281647205E-1;2.550444603E0
3.464942752E1;1.624853253E0;-1.626493573E0;-3.489177704E0
3.466714908E1;-2.851981163E0;-2.631089449E0;-1.296104431E0
3.468487387E1;-3.735571861E0;-3.229248762E0;5.171766281E-1
3.470259750E1;-1.656353235E0;-2.917003632E0;1.402608871E0
3.472031021E1;1.614978790E0;-2.081417561E0;1.585672379E0
3.473803964E1;2.292480230E0;-2.224131346E0;-3.837738037E-1
3.475576773E1;1.051522017E0;-2.162585258E0;-4.458475113E-1
3.477348154E1;-7.874448299E-1;-2.230897665E0;1.719274521E-1
3.479121738E1;-7.466895580E-1;-1.969500303E0;3.140316010E-1
3.480893808E1;5.360772610E-1;-1.792025805E0;-2.326002121E-1
3.482665390E1;1.216716409E0;-1.519521356E0;-1.711778641E-1
3.484438516E1;9.118754864E-1;-1.299268484E0;-3.688659668E-1
3.486209653E1;1.050628424E-1;-1.289645314E0;-2.923955917E-1
3.487983481E1;-2.275985479E-1;-1.236323357E0;-1.331653595E-1
3.489755411E1;-2.361725569E-1;-1.182933450E0;2.656526566E-1
3.491528146E1;5.265033245E-2;-1.217808485E0;9.984683990E-2
3.493300204E1;-2.334952354E-2;-1.371623158E0;7.995157242E-1
3.495071817E1;-2.895826101E-1;-1.760876417E0;1.156984329E0
3.496844668E1;-4.233086705E-1;-1.490720272E0;6.935977936E-1
3.498617270E1;-2.489085793E-1;-1.223430395E0;4.453134537E-1
3.500389255E1;-4.129177928E-1;-1.151789665E0;5.795946121E-1
3.502162106E1;-2.150006592E-1;-9.318833351E-1;2.937116623E-1
3.503933884E1;2.371510267E-1;-8.265833855E-1;4.485797882E-1
3.505706631E1;2.833459377E-1;-1.043836117E0;5.057964325E-1
3.507478958E1;-2.642640471E-2;-1.030275106E0;5.181617737E-1
3.509251376E1;-1.947217882E-1;-1.132092714E0;5.774497986E-1
3.511023666E1;-4.172383249E-2;-1.124195337E0;3.973512650E-1
3.512794809E1;4.323258996E-3;-1.043435335E0;2.155799866E-1
3.514568313E1;-8.944936097E-2;-1.193389416E0;5.765628815E-1
3.516340652E1;2.237048894E-1;-1.102616787E0;-3.235273361E-1
3.518112735E1;3.595851362E-1;-1.008630276E0;2.370891571E-1
3.519885238E1;-9.501612186E-2;-1.262712002E0;4.498682022E-1
3.521656601E1;-4.198105931E-1;-1.246368408E0;2.058963776E-1
3.523430118E1;-3.003171682E-1;-7.531580925E-1;-3.638792038E-1
3.525202402E1;1.008103043E-1;-5.805177689E-1;-1.355562210E-1
3.526974545E1;4.648497701E-2;-9.083728790E-1;3.918142319E-1
3.528746963E1;-3.100338876E-1;-1.136292219E0;6.806774139E-1
3.530519412E1;-3.725597858E-1;-8.366069794E-1;4.596872330E-1
3.532291806E1;-2.135717571E-1;-5.534615517E-1;1.059246063E-1
3.534064230E1;-1.645724922E-1;-8.148689270E-1;3.541870117E-1
3.535836447E1;-2.218182385E-2;-1.241758585E0;7.262868881E-1
3.537608798E1;-2.719875574E-1;-9.181241989E-1;4.313821793E-1
3.539381119E1;-1.018734351E-1;-5.118710995E-1;-1.883983612E-2
3.541153525E1;-7.248957455E-2;-7.513129711E-1;2.793216705E-1
3.542925833E1;-1.394539326E-1;-1.026200294E0;6.076126099E-1
3.544698502E1;-3.665402904E-2;-1.094391108E0;5.589590073E-1
3.546470230E1;-2.697423995E-1;-1.054032087E0;3.016719818E-1
3.548242874E1;-5.234323144E-1;-9.285154343E-1;2.280015945E-1
3.550015219E1;-2.896928787E-1;-6.325705051E-1;1.706953049E-1
3.551787527E1;-4.939913750E-3;-5.994348526E-1;1.946372986E-1
3.553559897E1;-2.481868118E-2;-8.834304810E-1;3.909788132E-1
3.555332388E1;7.142063975E-2;-1.031986237E0;6.573314667E-1
3.557104300E1;-2.589123696E-2;-1.103420496E0;7.448673248E-1
3.558876907E1;-1.084535047E-1;-9.898161888E-1;5.251932144E-1
3.560649570E1;1.560941786E-1;-9.455449581E-1;5.681457520E-1
3.562421707E1;1.522729397E-1;-1.206502438E0;4.044027328E-1
3.564193484E1;1.373218894E-1;-1.180839777E0;3.764162064E-1
3.565965591E1;2.243877202E-2;-1.042858839E0;2.714138031E-1
3.567738113E1;-1.439796686E-1;-1.034231186E0;2.971162796E-1
3.569509824E1;-2.279106677E-1;-9.411072731E-1;4.612360001E-1
3.571283236E1;-1.351932287E-1;-9.685873985E-1;3.617630005E-1
3.573055813E1;7.949063927E-2;-9.346787930E-1;2.017803192E-1
3.574827670E1;1.104028821E-1;-9.920246601E-1;1.936292648E-1
3.576600497E1;-6.802225113E-2;-1.089898109E0;3.750152588E-1
3.578372159E1;-6.832671165E-2;-1.052568436E0;3.022069931E-1
3.580144998E1;5.194035918E-2;-1.094309092E0;3.760366440E-1
3.581917416E1;-6.158794463E-2;-1.258857250E0;-2.068233490E-2
3.583689426E1;-8.801788092E-3;-1.160963774E0;6.543731689E-2
3.585462118E1;7.282480597E-2;-1.004178286E0;1.275959015E-1
3.587234500E1;1.530736685E-3;-8.359205723E-1;-1.214942932E-1
3.589006796E1;-6.171198189E-2;-7.449584007E-1;-3.345851898E-1
3.590778000E1;6.105287373E-2;-9.786677361E-1;-2.768306732E-1
3.592551413E1;3.694009781E-2;-9.823627472E-1;3.230762482E-2
3.594323819E1;-2.270855457E-1;-9.533233643E-1;-1.026391983E-1
3.596094974E1;-3.281491995E-1;-8.873662949E-1;-9.414482117E-2
3.597868210E1;-2.347465605E-1;-8.950252533E-1;2.748327255E-1
3.599640854E1;-3.293911219E-1;-8.489043713E-1;3.265953064E-1
3.601412723E1;-3.259916902E-1;-7.922968864E-1;4.504899979E-1
3.603185562E1;-2.399077117E-1;-7.194901705E-1;5.111799240E-1
3.604958035E1;-2.018429190E-1;-8.775522709E-1;3.086929321E-1
3.606730374E1;-3.481173515E-2;-8.997244835E-1;5.151700974E-1
3.608502109E1;-5.401185155E-2;-9.176764488E-1;6.770792007E-1
3.610274795E1;4.251849651E-2;-1.065509081E0;2.877025604E-1
3.612047122E1;1.579248905E-2;-1.116035223E0;6.094894409E-1
3.613819595E1;-2.434647232E-1;-1.065858722E0;5.499467850E-1
3.615592258E1;5.130234361E-2;-9.445559978E-1;2.249307632E-1
3.617364242E1;-4.156509042E-2;-9.231381416E-1;1.611642838E-1
3.619136325E1;7.344186306E-2;-8.404595852E-1;5.588245392E-2
3.620908993E1;8.394873142E-2;-8.167276382E-1;-1.380815506E-1
3.622680423E1;9.632307291E-2;-8.818025589E-1;-2.208089828E-1
3.624453775E1;1.061508656E-1;-9.078330994E-1;-9.734630585E-2
3.626226163E1;4.313123226E-2;-1.236088276E0;1.912498474E-2
3.627996664E1;6.412130594E-2;-1.516729116E0;6.093454361E-1
3.629770370E1;-1.705661714E-1;-1.294277549E0;6.621952057E-1
3.631543142E1;8.694112301E-2;-1.020472765E0;4.002723694E-1
3.633315414E1;2.396463156E-1;-1.072795749E0;2.478885651E-2
3.635087747E1;8.899861574E-2;-9.911172390E-1;-1.361656189E-1
3.636860385E1;3.207969666E-2;-8.023107052E-1;-1.488170624E-1
3.638632577E1;7.033020258E-2;-8.499183655E-1;-8.182334900E-2
3.640404367E1;-1.819637418E-1;-1.355161667E0;1.240215302E-1
3.642177023E1;-9.710347652E-2;-1.466829658E0;4.409646988E-1
3.643949746E1;-8.421558142E-2;-1.010018587E0;2.683086395E-1
3.645721841E1;2.978286147E-1;-6.941211224E-1;5.993556976E-2
3.647494174E1;-1.810105443E-1;-8.913674355E-1;7.473468781E-2
3.649266074E1;-1.081365347E-2;-6.296911240E-1;1.993942261E-1
3.651039169E1;-1.323934197E-1;-6.994307041E-1;4.075584412E-1
3.652811221E1;-1.346124411E-1;-7.305803299E-1;2.923173904E-1
3.654582260E1;-1.911537647E-1;-8.625895977E-1;3.692092896E-1
3.656355923E1;-7.334965467E-2;-9.347734451E-1;4.401626587E-1
3.658128244E1;-4.719269276E-2;-8.723592758E-1;4.998197556E-1
3.659900613E1;-1.606597900E-1;-9.059677124E-1;4.635877609E-1
3.661671719E1;-1.423454881E-1;-9.380435944E-1;4.801912308E-1
3.663445181E1;1.460717320E-1;-9.458539486E-1;5.475416183E-1
3.665217606E1;-2.486026287E-2;-9.446854591E-1;4.143886566E-1
3.666989975E1;-1.411414146E-2;-9.242391586E-1;3.490428925E-1
3.668761850E1;9.660518169E-2;-9.398822784E-1;1.642112732E-1
3.670533365E1;3.113626838E-1;-1.041486025E0;2.346725464E-1
3.672307309E1;1.133553386E-1;-1.049667835E0;2.149887085E-1
3.674079477E1;-1.549243927E-1;-1.292593956E0;4.381475449E-1
3.675851657E1;-2.046967149E-1;-1.072212934E0;9.155273438E-4
3.677624057E1;-4.485040903E-2;-7.401993275E-1;5.142307281E-2
3.679395767E1;-1.956170797E-2;-7.010564804E-1;2.371120453E-2
3.681168338E1;3.579676151E-2;-8.822724819E-1;7.147312164E-2
3.682941098E1;1.708352566E-2;-8.124794960E-1;1.417045593E-1
3.684713437E1;-1.396651864E-1;-8.632779121E-1;2.244739532E-1
3.686485776E1;-1.848370433E-1;-1.068273544E0;3.985929489E-1
3.688258090E1;-8.032006025E-2;-1.083975554E0;4.922695160E-1
3.690030734E1;3.284412622E-2;-8.400099277E-1;3.742046356E-1
3.691802701E1;1.545543075E-1;-7.183954716E-1;1.329660416E-1
3.693575149E1;1.225396991E-1;-7.015471458E-1;1.254701614E-1
3.695347409E1;2.146651745E-1;-7.146301270E-1;2.915573120E-2
3.697118100E1;-1.555800438E-1;-8.882932663E-1;2.336034775E-1
3.698891733E1;-9.099477530E-2;-8.484795094E-1;3.570060730E-1
3.700664633E1;4.732578993E-2;-8.282723427E-1;4.760150909E-1
