time,seconds_elapsed,z,y,x
1713800421055561000,0.13356103515625,9.766305923461914,0.7525427341461182,-0.373878538608551
1713800421073279500,0.151279541015625,9.499505996704102,0.8141579031944275,-0.40378883481025696
1713800421090994000,0.168993896484375,9.475577354431152,0.7663014531135559,-0.39900317788124084
1713800421108731100,0.186731201171875,9.690333366394043,0.7567301392555237,-0.46480581164360046
1713800421126451000,0.204450927734375,9.69511890411377,0.737587571144104,-0.4983053207397461
1713800421144173600,0.222173583984375,9.914660453796387,0.8051848411560059,-0.4630111753940582
1713800421161894100,0.23989404296875,9.894919395446777,0.7860422134399414,-0.38703906536102295
1713800421179616500,0.257616455078125,9.838089942932129,0.8291130661964417,-0.4731806814670563
1713800421197340700,0.275340576171875,9.661619186401367,0.8237292170524597,-0.40737804770469666
1713800421215062000,0.29306201171875,9.57607650756836,0.8237292170524597,-0.3840480446815491
1713800421232783600,0.31078369140625,9.561718940734863,0.7854440212249756,-0.4223332107067108
1713800421250508500,0.328508544921875,9.57607650756836,0.7758727669715881,-0.40797626972198486
1713800421268228900,0.346228759765625,9.671191215515137,0.828514814376831,-0.388235479593277
1713800421285953300,0.363953369140625,9.685547828674316,0.8333004713058472,-0.40259242057800293
1713800421303669500,0.38166943359375,9.77109146118164,0.7334001660346985,-0.3595215976238251
1713800421321396700,0.399396728515625,9.814162254333496,0.7094719409942627,-0.31106695532798767
1713800421339119000,0.417119140625,9.708877563476562,0.7573283910751343,-0.3403790295124054
1713800421356841700,0.434841796875,9.723833084106445,0.7950153350830078,-0.4169493317604065
1713800421374562600,0.4525625,9.709476470947266,0.8380861282348633,-0.45942193269729614
1713800421392287200,0.470287353515625,9.690333366394043,0.8524430394172668,-0.4504488706588745
1713800421410008800,0.4880087890625,9.637691497802734,0.9002995491027832,-0.4169493317604065
1713800421427731000,0.50573095703125,9.628120422363281,0.8578268885612488,-0.3696911036968231
1713800421445453300,0.523453369140625,9.699904441833496,0.7956135272979736,-0.3690928816795349
1713800421463176200,0.54117626953125,9.838089942932129,0.7956135272979736,-0.4205385744571686
1713800421480886500,0.558886474609375,9.838089942932129,0.7429714202880859,-0.4061816334724426
1713800421498616300,0.5766162109375,9.775876998901367,0.7381857633590698,-0.3684946894645691
1713800421516347100,0.59434716796875,9.751948356628418,0.7471588850021362,-0.4019941985607147
1713800421534064600,0.612064697265625,9.737591743469238,0.7908278703689575,-0.38344982266426086
1713800421551787800,0.629787841796875,9.561718940734863,0.7950153350830078,-0.37447673082351685
1713800421569492700,0.64749267578125,9.599406242370605,0.7950153350830078,-0.34576287865638733
1713800421587230700,0.665230712890625,9.714262008666992,0.7621139883995056,-0.3690928816795349
1713800421604956000,0.682955810546875,9.647262573242188,0.8195417523384094,-0.3314059376716614
1713800421622672100,0.700672119140625,9.599406242370605,0.7902296781539917,-0.34576287865638733
1713800421640400100,0.718400146484375,9.694520950317383,0.7716853022575378,-0.29790642857551575
1713800421658111500,0.736111572265625,9.766305923461914,0.7328019142150879,-0.40677985548973083
1713800421675844000,0.753843994140625,9.876375198364258,0.8051848411560059,-0.38225340843200684
1713800421693566200,0.771566162109375,9.804591178894043,0.6753742098808289,-0.397208571434021
1713800421711288800,0.789288818359375,9.790233612060547,0.747757077217102,-0.33499518036842346
1713800421729023200,0.807023193359375,9.671191215515137,0.7519445419311523,-0.373878538608551
1713800421746728700,0.824728759765625,9.718449592590332,0.8769695162773132,-0.34995031356811523
1713800421764455400,0.842455322265625,9.714262008666992,0.8578268885612488,-0.373878538608551
1713800421782178800,0.8601787109375,9.828518867492676,0.7860422134399414,-0.35892340540885925
1713800421799900400,0.877900390625,9.69930648803711,0.7429714202880859,-0.3409772217273712
1713800421817622800,0.895622802734375,9.537193298339844,0.7328019142150879,-0.2847459018230438
1713800421835344100,0.91334423828125,9.608977317810059,0.7471588850021362,-0.35054850578308105
1713800421853068800,0.93106884765625,9.89970588684082,0.7621139883995056,-0.35832518339157104
1713800421870789600,0.94878955078125,10.009775161743164,0.7046862840652466,-0.39601215720176697
1713800421888512500,0.966512451171875,9.842277526855469,0.7334001660346985,-0.32542386651039124
1713800421906221600,0.9842216796875,9.613762855529785,0.7381857633590698,-0.29850462079048157
1713800421923958300,1.001958251953125,9.665806770324707,0.747757077217102,-0.29312077164649963
1713800421941674200,1.01967431640625,9.642477035522461,0.7812566161155701,-0.34576287865638733
1713800421959401700,1.037401611328125,9.675976753234863,0.7908278703689575,-0.34995031356811523
1713800421977124400,1.055124267578125,9.585049629211426,0.776470959186554,-0.29850462079048157
1713800421994846200,1.07284619140625,9.604191780090332,0.7908278703689575,-0.2745763957500458
1713800422012568300,1.090568359375,9.80399227142334,0.6999006271362305,-0.2350948303937912
1713800422030291200,1.108291259765625,9.951749801635742,0.6520441770553589,-0.2632105052471161
1713800422047998000,1.125998046875,9.971489906311035,0.7334001660346985,-0.3439682424068451
1713800422065739000,1.143739013671875,9.742377281188965,0.8099704384803772,-0.35473597049713135
1713800422083457500,1.16145751953125,9.45164966583252,0.857228696346283,-0.3565305769443512
1713800422101180400,1.179180419921875,9.53779125213623,0.828514814376831,-0.3367897868156433
1713800422118898000,1.19689794921875,9.775876998901367,0.7190431952476501,-0.3164508044719696
1713800422136626700,1.214626708984375,9.842875480651855,0.6759724020957947,-0.35892340540885925
1713800422154346800,1.2323466796875,9.775876998901367,0.7190431952476501,-0.3690928816795349
1713800422172071200,1.2500712890625,9.589835166931152,0.7615157961845398,-0.31764721870422363
1713800422189792300,1.267792236328125,9.565906524658203,0.8141579031944275,-0.35114672780036926
1713800422207513600,1.285513671875,9.718449592590332,0.8147560954093933,-0.32123643159866333
1713800422225236200,1.303236328125,9.875777244567871,0.7621139883995056,-0.36311084032058716
1713800422242960100,1.320960205078125,9.68076229095459,0.8195417523384094,-0.3643072545528412
1713800422260676600,1.338676513671875,9.509077072143555,0.8093722462654114,-0.37507495284080505
1713800422278404000,1.356404052734375,9.756733894348145,0.7328019142150879,-0.38344982266426086
1713800422296125700,1.374125732421875,9.923633575439453,0.7429714202880859,-0.4301098585128784
1713800422313839400,1.39183935546875,9.847661972045898,0.8051848411560059,-0.43489551544189453
1713800422331572200,1.409572265625,9.709476470947266,0.8093722462654114,-0.388235479593277
1713800422349292000,1.4272919921875,9.637691497802734,0.8386843204498291,-0.34576287865638733
1713800422367015200,1.44501513671875,9.551549911499023,0.8524430394172668,-0.32243284583091736
1713800422384737500,1.462737548828125,9.795019149780273,0.8195417523384094,-0.35413774847984314
1713800422402460200,1.480460205078125,10.023533821105957,0.6999006271362305,-0.2955136001110077
1713800422420178200,1.49817822265625,9.875777244567871,0.7812566161155701,-0.32542386651039124
1713800422437904400,1.515904296875,9.551549911499023,0.7423732280731201,-0.2841476798057556
1713800422455627000,1.533626953125,9.4660062789917,0.7615157961845398,-0.2799602448940277
1713800422473349000,1.55134912109375,9.513862609863281,0.828514814376831,-0.28953152894973755
1713800422491072300,1.569072265625,9.708877563476562,0.776470959186554,-0.30209386348724365
1713800422508793000,1.58679296875,9.880562782287598,0.6999006271362305,-0.2919243574142456
1713800422526517500,1.604517578125,9.828518867492676,0.7046862840652466,-0.33020952343940735
1713800422544238000,1.622238037109375,9.761520385742188,0.776470959186554,-0.373878538608551
1713800422561962800,1.639962646484375,9.637691497802734,0.8530412912368774,-0.29790642857551575
1713800422579678500,1.657678466796875,9.589835166931152,0.900897741317749,-0.26500511169433594
1713800422597405400,1.675405517578125,9.694520950317383,0.8099704384803772,-0.22612173855304718
1713800422615129900,1.6931298828125,9.728020668029785,0.7046862840652466,-0.2356930375099182
1713800422632851000,1.710850830078125,9.766305923461914,0.714257538318634,-0.2548356056213379
1713800422650572800,1.72857275390625,9.790233612060547,0.6903293132781982,-0.2925225794315338
1713800422668295200,1.746295166015625,9.80937671661377,0.6951149702072144,-0.3355933725833893
1713800422686017300,1.764017333984375,9.795019149780273,0.747757077217102,-0.3924229145050049
1713800422703733500,1.7817333984375,9.671191215515137,0.7519445419311523,-0.364905446767807
1713800422721462000,1.7994619140625,9.689735412597656,0.7812566161155701,-0.27397820353507996
1713800422739184400,1.817184326171875,9.675378799438477,0.7525427341461182,-0.24047867953777313
1713800422756906200,1.83490625,9.7998046875,0.7716853022575378,-0.31106695532798767
1713800422774627800,1.8526279296875,9.818947792053223,0.7860422134399414,-0.3397808074951172
1713800422792351200,1.870351318359375,9.728618621826172,0.8003991842269897,-0.3930211067199707
1713800422810072600,1.888072509765625,9.718449592590332,0.8099704384803772,-0.34995031356811523
1713800422827797200,1.90579736328125,9.69930648803711,0.7716853022575378,-0.26440688967704773
1713800422845518800,1.923518798828125,9.78963565826416,0.7334001660346985,-0.22552353143692017
1713800422863239200,1.9412392578125,9.903892517089844,0.714257538318634,-0.20099709928035736
1713800422880959200,1.958959228515625,9.694520950317383,0.6999006271362305,-0.21236300468444824
1713800422898681300,1.976681396484375,9.652048110961914,0.7908278703689575,-0.3361915946006775
1713800422916397000,1.99439697265625,9.509077072143555,0.8237292170524597,-0.34636107087135315
1713800422934129400,2.01212939453125,9.518648147583008,0.8141579031944275,-0.32303106784820557
1713800422951850800,2.029850830078125,9.680164337158203,0.7956135272979736,-0.26440688967704773
1713800422969576000,2.047575927734375,9.847063064575195,0.7190431952476501,-0.19680966436862946
1713800422987297500,2.065297607421875,10.052248001098633,0.633499801158905,-0.23389841616153717
1713800423005019000,2.083018798828125,9.937392234802246,0.7190431952476501,-0.24885354936122894
1713800423022737000,2.10073681640625,9.689735412597656,0.7908278703689575,-0.3026920557022095
1713800423040464100,2.118464111328125,9.499505996704102,0.8811569213867188,-0.31345975399017334
1713800423058186500,2.1361865234375,9.499505996704102,0.8715856671333313,-0.3038884699344635
1713800423075908400,2.153908447265625,9.732806205749512,0.8051848411560059,-0.22612173855304718
1713800423093619500,2.171619384765625,9.856635093688965,0.7094719409942627,-0.2590230405330658
1713800423111352000,2.18935205078125,9.842277526855469,0.747757077217102,-0.24466611444950104
1713800423129076700,2.20707666015625,9.69930648803711,0.7334001660346985,-0.2883351147174835
1713800423146797600,2.224797607421875,9.642477035522461,0.7621139883995056,-0.26500511169433594
1713800423164519400,2.24251953125,9.708877563476562,0.7716853022575378,-0.2883351147174835
1713800423182231800,2.260231689453125,9.77109146118164,0.8243274092674255,-0.2877369225025177
1713800423199966500,2.277966552734375,9.795019149780273,0.7716853022575378,-0.3068794906139374
1713800423217682400,2.295682373046875,9.708877563476562,0.7908278703689575,-0.26919254660606384
1713800423235409700,2.31340966796875,9.551549911499023,0.8195417523384094,-0.24646073579788208
1713800423253131300,2.33113134765625,9.599406242370605,0.776470959186554,-0.3032902777194977
1713800423270844000,2.348843994140625,9.732806205749512,0.7668996453285217,-0.2835494875907898
1713800423288574500,2.366574462890625,9.880562782287598,0.7621139883995056,-0.32542386651039124
1713800423306300200,2.384300048828125,9.827920913696289,0.747757077217102,-0.25423741340637207
1713800423324021200,2.402021240234375,9.78544807434082,0.6903293132781982,-0.2877369225025177
1713800423341743600,2.41974365234375,9.647262573242188,0.7286145091056824,-0.2883351147174835
1713800423359465200,2.43746533203125,9.642477035522461,0.8051848411560059,-0.34576287865638733
1713800423377185300,2.455185302734375,9.647262573242188,0.8721838593482971,-0.29790642857551575
1713800423394908200,2.472908203125,9.694520950317383,0.8386843204498291,-0.2883351147174835
1713800423412632800,2.4906328125,9.799206733703613,0.8195417523384094,-0.20159530639648438
1713800423430355200,2.508355224609375,9.746564865112305,0.7238288521766663,-0.1782652884721756
1713800423448077000,2.5260771484375,9.756135940551758,0.7429714202880859,-0.2069791555404663
1713800423465795000,2.543795166015625,9.713663101196289,0.7334001660346985,-0.29312077164649963
1713800423483520800,2.561520751953125,9.761520385742188,0.7429714202880859,-0.3355933725833893
1713800423501244200,2.579244140625,9.7998046875,0.7429714202880859,-0.3403790295124054
1713800423518963500,2.59696337890625,9.689735412597656,0.747757077217102,-0.32183465361595154
1713800423536684300,2.614684326171875,9.689735412597656,0.7716853022575378,-0.2883351147174835
1713800423554410500,2.632410400390625,9.7998046875,0.7716853022575378,-0.32123643159866333
1713800423572134100,2.650134033203125,9.761520385742188,0.7860422134399414,-0.34995031356811523
1713800423589855700,2.667855712890625,9.742975234985352,0.8093722462654114,-0.3978067636489868
1713800423607577900,2.685577880859375,9.733404159545898,0.8003991842269897,-0.373878538608551
1713800423625301000,2.703301025390625,9.742377281188965,0.8147560954093933,-0.3164508044719696
1713800423643022300,2.721022216796875,9.81356430053711,0.8147560954093933,-0.24945175647735596
1713800423660745000,2.738744873046875,9.861420631408691,0.747757077217102,-0.23030917346477509
1713800423678467000,2.756467041015625,9.723235130310059,0.7716853022575378,-0.21655045449733734
1713800423696190000,2.77418994140625,9.503693580627441,0.8195417523384094,-0.2273181527853012
1713800423713911600,2.79191162109375,9.437292098999023,0.7998009920120239,-0.28534409403800964
1713800423731635000,2.809635009765625,9.694520950317383,0.7812566161155701,-0.2787638306617737
1713800423749347000,2.82734716796875,9.866206169128418,0.6807580590248108,-0.32542386651039124
1713800423767070200,2.8450703125,9.80399227142334,0.7525427341461182,-0.25423741340637207
1713800423784805400,2.862805419921875,9.723235130310059,0.7573283910751343,-0.259621262550354
1713800423802523400,2.8805234375,9.632905960083008,0.8003991842269897,-0.23629122972488403
1713800423820244700,2.89824462890625,9.632905960083008,0.8530412912368774,-0.2602194547653198
1713800423837973800,2.915973876953125,9.77109146118164,0.8386843204498291,-0.3355933725833893
1713800423855683600,2.93368359375,9.78544807434082,0.8578268885612488,-0.27816563844680786
1713800423873414100,2.9514140625,9.77109146118164,0.776470959186554,-0.32602208852767944
1713800423891135200,2.96913525390625,9.689735412597656,0.8482556343078613,-0.22133609652519226
1713800423908853500,2.986853515625,9.747162818908691,0.7716853022575378,-0.3403790295124054
1713800423926579000,3.004578857421875,9.761520385742188,0.8530412912368774,-0.268594354391098
1713800423944301800,3.0223017578125,9.728020668029785,0.8386843204498291,-0.2877369225025177
1713800423962024200,3.040024169921875,9.641879081726074,0.8626125454902649,-0.20757736265659332
1713800423979746800,3.057746826171875,9.608977317810059,0.8578268885612488,-0.2267199456691742
1713800423997468400,3.075468505859375,9.704092025756836,0.776470959186554,-0.21176479756832123
1713800424015179800,3.0931796875,9.78544807434082,0.7238288521766663,-0.268594354391098
1713800424032913400,3.110913330078125,9.784850120544434,0.8099704384803772,-0.22552353143692017
1713800424050636500,3.128636474609375,9.747162818908691,0.8099704384803772,-0.24526432156562805
1713800424068353000,3.14635302734375,9.708877563476562,0.833898663520813,-0.25004997849464417
1713800424086080500,3.16408056640625,9.632905960083008,0.9152546525001526,-0.23629122972488403
1713800424103802600,3.181802734375,9.632905960083008,0.867398202419281,-0.24107688665390015
1713800424121525500,3.199525390625,9.794421195983887,0.8584251403808594,-0.16390834748744965
1713800424139245800,3.217245849609375,9.751948356628418,0.747757077217102,-0.2356930375099182
1713800424156969200,3.23496923828125,9.718449592590332,0.7668996453285217,-0.2021935135126114
1713800424174688800,3.252688720703125,9.780662536621094,0.8530412912368774,-0.2877369225025177
1713800424192414500,3.27041455078125,9.756733894348145,0.9343972206115723,-0.268594354391098
1713800424210136300,3.28813623046875,9.761520385742188,0.8913264274597168,-0.24466611444950104
1713800424227846000,3.305845947265625,9.713663101196289,0.8147560954093933,-0.2069791555404663
1713800424245571600,3.323571533203125,9.54197883605957,0.8434699773788452,-0.14117653667926788
1713800424263303700,3.3413037109375,9.55633544921875,0.7956135272979736,-0.1746760457754135
1713800424281025500,3.359025634765625,9.780064582824707,0.7812566161155701,-0.22552353143692017
1713800424298748400,3.37674853515625,9.990034103393555,0.7573283910751343,-0.2626122832298279
1713800424316464600,3.394464599609375,9.92841911315918,0.7621139883995056,-0.27756741642951965
1713800424334189800,3.41218994140625,9.766305923461914,0.8434699773788452,-0.21595224738121033
1713800424351917600,3.42991748046875,9.537193298339844,0.8386843204498291,-0.20338992774486542
1713800424369637600,3.4476376953125,9.584450721740723,0.8626125454902649,-0.16510476171970367
1713800424387359700,3.46535986328125,9.671191215515137,0.8147560954093933,-0.29790642857551575
1713800424405066800,3.483066650390625,9.780662536621094,0.8195417523384094,-0.2350948303937912
1713800424422804000,3.500803955078125,9.80399227142334,0.8003991842269897,-0.22552353143692017
1713800424440521700,3.518521728515625,9.77527904510498,0.8147560954093933,-0.2063809484243393
1713800424458248000,3.536248046875,9.761520385742188,0.8386843204498291,-0.22073788940906525
1713800424475972400,3.553972412109375,9.77527904510498,0.8626125454902649,-0.20159530639648438
1713800424493681700,3.571681640625,9.608379364013672,0.8147560954093933,-0.19800607860088348
1713800424511414000,3.5894140625,9.55633544921875,0.8291130661964417,-0.13160525262355804
1713800424529138200,3.60713818359375,9.561120986938477,0.8099704384803772,-0.16031911969184875
1713800424546858200,3.624858154296875,9.728020668029785,0.7908278703689575,-0.1782652884721756
1713800424564587500,3.64258740234375,9.89013385772705,0.7429714202880859,-0.2392822653055191
1713800424582291700,3.660291748046875,9.808777809143066,0.7716853022575378,-0.23030917346477509
1713800424600027100,3.678027099609375,9.627521514892578,0.7908278703689575,-0.22193430364131927
1713800424617749800,3.695749755859375,9.599406242370605,0.8195417523384094,-0.23629122972488403
1713800424635471600,3.7134716796875,9.632308006286621,0.7381857633590698,-0.20757736265659332
1713800424653193700,3.73119384765625,9.627521514892578,0.6807580590248108,-0.12681959569454193
1713800424670916600,3.74891650390625,9.875777244567871,0.6424728631973267,-0.2679961323738098
1713800424688639500,3.766639404296875,10.028319358825684,0.7579265832901001,-0.27696922421455383
1713800424706360300,3.7843603515625,9.766305923461914,0.9391828775405884,-0.3403790295124054
1713800424724083700,3.802083740234375,9.485149383544922,1.058824062347412,-0.31764721870422363
1713800424741800700,3.81980078125,9.503693580627441,0.9487541913986206,-0.24167509377002716
1713800424759528200,3.837528076171875,9.718449592590332,0.8195417523384094,-0.2835494875907898
1713800424777248800,3.855248779296875,9.885348320007324,0.714257538318634,-0.3397808074951172
1713800424794973700,3.8729736328125,9.923633575439453,0.6999006271362305,-0.30149564146995544
1713800424812690000,3.89068994140625,9.837491989135742,0.656829833984375,-0.3164508044719696
1713800424830416100,3.908416015625,9.795019149780273,0.7573283910751343,-0.3403790295124054
1713800424848140500,3.926140625,9.880562782287598,0.8961120843887329,-0.30628129839897156
1713800424865861600,3.943861572265625,9.499505996704102,0.7854440212249756,-0.3086741268634796
1713800424883568400,3.961568359375,9.499505996704102,0.8482556343078613,-0.2560320198535919
1713800424901303000,3.979302978515625,9.479764938354492,0.8530412912368774,-0.20398813486099243
1713800424919028000,3.997028076171875,9.575477600097656,0.8626125454902649,-0.16031911969184875
1713800424936751000,4.014751220703125,9.537193298339844,0.7806583642959595,-0.2991028428077698
1713800424954472200,4.03247216796875,9.818349838256836,0.8482556343078613,-0.22552353143692017
1713800424972185300,4.050185302734375,9.871589660644531,0.8769695162773132,-0.4205385744571686
1713800424989917200,4.067917236328125,9.818947792053223,0.9104689955711365,-0.363709032535553
1713800425007641000,4.08564111328125,9.775876998901367,0.8961120843887329,-0.25423741340637207
1713800425025362700,4.10336279296875,9.751948356628418,0.8243274092674255,-0.22612173855304718
1713800425043084800,4.121084716796875,9.671191215515137,0.7094719409942627,-0.29790642857551575
1713800425060806400,4.138806396484375,9.41336441040039,0.7758727669715881,-0.23270200192928314
1713800425078526500,4.1565263671875,9.122636795043945,0.7471588850021362,-0.2679961323738098
1713800425096253200,4.174253173828125,9.375079154968262,0.6753742098808289,-0.18544375896453857
1713800425113970700,4.191970703125,9.747162818908691,0.6370890140533447,-0.373878538608551
1713800425131691000,4.20969091796875,10.171290397644043,0.537188708782196,-0.2907279431819916
1713800425149407700,4.22740771484375,10.232906341552734,0.35054850578308105,-0.2757728099822998
1713800425167140400,4.245140380859375,10.13300609588623,0.364905446767807,-0.1908276081085205
1713800425184864500,4.262864501953125,9.808777809143066,0.4175475537776947,-0.22612173855304718
1713800425202584000,4.280583984375,9.889535903930664,0.37447673082351685,-0.2063809484243393
1713800425220309000,4.29830908203125,9.765707015991211,0.4127618968486786,-0.0975075215101242
1713800425238029800,4.31602978515625,9.57487964630127,0.4223332107067108,-0.12741780281066895
1713800425255752400,4.33375244140625,9.704092025756836,0.43609192967414856,-0.21714866161346436
1713800425273474600,4.351474609375,9.937392234802246,0.3314059376716614,-0.23988047242164612
1713800425291197200,4.369197265625,10.070792198181152,0.32183465361595154,-0.2392822653055191
1713800425308914400,4.38691455078125,9.837491989135742,0.3840480446815491,-0.2021935135126114
1713800425326629600,4.404629638671875,9.665806770324707,0.48873403668403625,-0.23629122972488403
1713800425344363500,4.422363525390625,9.575477600097656,0.5222335457801819,-0.23688943684101105
1713800425362086100,4.440086181640625,9.651450157165527,0.49351966381073,-0.2841476798057556
1713800425379805700,4.4578056640625,9.808777809143066,0.4175475537776947,-0.24047867953777313
1713800425397534000,4.475533935546875,9.899106979370117,0.34576287865638733,-0.17766708135604858
1713800425415246600,4.49324658203125,9.961320877075195,0.29790642857551575,-0.2350948303937912
1713800425432977000,4.510976806640625,9.841679573059082,0.47976094484329224,-0.13998012244701385
1713800425450695400,4.5286953125,9.69930648803711,0.5276173949241638,-0.16929219663143158
1713800425468416000,4.546416015625,9.674779891967773,0.5276173949241638,-0.059820566326379776
1713800425486156000,4.564156005859375,9.879964828491211,0.5138586759567261,-0.08733802288770676
1713800425503863800,4.58186376953125,9.899106979370117,0.50907301902771,-0.10169496387243271
1713800425521588000,4.599587890625,9.808777809143066,0.5084748268127441,-0.11605189740657806
1713800425539309300,4.617309326171875,9.80399227142334,0.5228317379951477,-0.18783657252788544
1713800425557029600,4.635029541015625,9.827920913696289,0.5850451588630676,-0.19740787148475647
1713800425574754000,4.652754150390625,9.760921478271484,0.5946164131164551,-0.18783657252788544
1713800425592474400,4.670474365234375,9.66102123260498,0.6089733839035034,-0.14117653667926788
1713800425610201000,4.688201171875,9.508479118347168,0.6807580590248108,-0.18005990982055664
1713800425627918800,4.7059189453125,9.584450721740723,0.6472585201263428,-0.13220344483852386
1713800425645643800,4.723643798828125,9.641879081726074,0.6759724020957947,-0.2315055876970291
1713800425663365000,4.741365234375,9.879964828491211,0.6711867451667786,-0.16809579730033875
1713800425681087700,4.759087646484375,9.656235694885254,0.7094719409942627,-0.21236300468444824
1713800425698809600,4.7768095703125,9.575477600097656,0.7381857633590698,-0.2512463629245758
1713800425716530000,4.794530029296875,9.651450157165527,0.7238288521766663,-0.21714866161346436
1713800425734252800,4.812252685546875,9.680164337158203,0.6275177597999573,-0.29790642857551575
1713800425751975200,4.82997509765625,9.818947792053223,0.7429714202880859,-0.29730820655822754
1713800425769697500,4.847697509765625,9.671191215515137,0.5605186820030212,-0.35054850578308105
1713800425787416600,4.86541650390625,9.399007797241211,0.6705885529518127,-0.3044866919517517
1713800425805143600,4.8831435546875,8.95095157623291,0.737587571144104,-0.13579268753528595
1713800425822866200,4.9008662109375,9.107681274414062,0.776470959186554,0.06580262631177902
1713800425840587800,4.918587890625,9.669994354248047,0.7770691514015198,0.035892341285943985
1713800425858311000,4.936310791015625,9.79801082611084,0.9451649188995361,0.2991028428077698
1713800425876032500,4.954032470703125,10.02712345123291,0.3080759048461914,-0.010169495828449726
1713800425893755400,4.97175537109375,10.62413215637207,0.07357929646968842,-0.259621262550354
1713800425911477200,4.989477294921875,10.25743293762207,0.40319061279296875,-0.4331009089946747
1713800425929199400,5.007199462890625,9.647262573242188,0.37866419553756714,-0.4133601188659668
1713800425946919200,5.024919189453125,9.366106033325195,0.5312066078186035,-0.5054838061332703
1713800425964647700,5.042647705078125,9.357132911682129,0.6556333899497986,-0.5288137793540955
1713800425982366500,5.060366455078125,9.704689979553223,0.6131607890129089,-0.4408775866031647
1713800426000089000,5.078089111328125,10.152148246765137,0.3888336718082428,-0.3768695592880249
1713800426017816600,5.095816650390625,10.075577735900879,0.32183465361595154,-0.27696922421455383
1713800426035530000,5.113530029296875,9.856635093688965,0.4169493317604065,-0.3595215976238251
1713800426053258000,5.131258056640625,9.761520385742188,0.46480581164360046,-0.43130627274513245
1713800426070979000,5.14897900390625,9.814162254333496,0.5413761138916016,-0.37866419553756714
1713800426088696000,5.166696044921875,9.762118339538574,0.5126622319221497,-0.527019202709198
1713800426106422500,5.184422607421875,9.690333366394043,0.5078766345977783,-0.43190449476242065
1713800426124144400,5.202144287109375,9.7998046875,0.43609192967414856,-0.373878538608551
1713800426141867500,5.219867431640625,9.89013385772705,0.4504488706588745,-0.3924229145050049
1713800426159589000,5.237589111328125,9.808777809143066,0.3978067636489868,-0.3074777126312256
1713800426177310700,5.255310791015625,9.78963565826416,0.3690928816795349,-0.3026920557022095
1713800426195034400,5.273034423828125,9.804591178894043,0.4408775866031647,-0.3403790295124054
1713800426212752100,5.290752197265625,9.89013385772705,0.43130627274513245,-0.38763725757598877
1713800426230482700,5.308482666015625,9.909276962280273,0.46002015471458435,-0.40677985548973083
1713800426248201200,5.326201171875,9.838089942932129,0.46480581164360046,-0.3930211067199707
1713800426265923000,5.343923095703125,9.694520950317383,0.4169493317604065,-0.3128615617752075
1713800426283634000,5.361634033203125,9.747162818908691,0.4462614357471466,-0.2315055876970291
1713800426301368000,5.3793681640625,9.742377281188965,0.41216370463371277,-0.2745763957500458
1713800426319090200,5.397090087890625,9.718449592590332,0.4408775866031647,-0.3122633695602417
1713800426336812300,5.414812255859375,9.647262573242188,0.4504488706588745,-0.32243284583091736
1713800426354533600,5.43253369140625,9.546764373779297,0.4504488706588745,-0.23270200192928314
1713800426372257000,5.450257080078125,9.603593826293945,0.41216370463371277,-0.1746760457754135
1713800426389976000,5.46797607421875,9.693922996520996,0.3840480446815491,-0.1788634955883026
1713800426407697000,5.48569677734375,9.966106414794922,0.3601198196411133,-0.22971096634864807
1713800426425424100,5.503424072265625,9.903892517089844,0.3840480446815491,-0.24945175647735596
1713800426443146000,5.52114599609375,9.599406242370605,0.4265206456184387,-0.26081767678260803
1713800426460863700,5.53886376953125,9.527621269226074,0.5174478888511658,-0.24227328598499298
1713800426478589000,5.5565888671875,9.4660062789917,0.5509474277496338,-0.33798620104789734
1713800426496314000,5.574314208984375,9.704092025756836,0.5126622319221497,-0.2745763957500458
1713800426514033000,5.592032958984375,9.799206733703613,0.40797626972198486,-0.26919254660606384
1713800426531760600,5.6097607421875,9.851848602294922,0.34576287865638733,-0.268594354391098
1713800426549479000,5.62747900390625,9.766305923461914,0.4217349886894226,-0.34576287865638733
1713800426567201000,5.645200927734375,9.603593826293945,0.5611169338226318,-0.21774685382843018
1713800426584910600,5.66291064453125,9.546764373779297,0.5557330846786499,-0.28953152894973755
1713800426602648600,5.680648681640625,9.680164337158203,0.5563312768936157,-0.21236300468444824
1713800426620370200,5.6983701171875,9.69930648803711,0.45583271980285645,-0.18843477964401245
1713800426638091000,5.716091064453125,9.851250648498535,0.4749752879142761,-0.12083754688501358
1713800426655814000,5.73381396484375,9.78963565826416,0.4749752879142761,-0.13040883839130402
1713800426673536300,5.751536376953125,9.693922996520996,0.503689169883728,0.0023928226437419653
1713800426691257600,5.769257568359375,9.598808288574219,0.4462614357471466,-0.06520441919565201
1713800426708978200,5.786978271484375,9.622138023376465,0.537188708782196,-0.026919255033135414
1713800426726699500,5.804699462890625,9.808777809143066,0.48454657196998596,-0.2069791555404663
1713800426744424400,5.822424560546875,9.951749801635742,0.5760720372200012,-0.12502498924732208
1713800426762143200,5.840143310546875,9.927223205566406,0.5330012440681458,0.017946170642971992
1713800426779870000,5.857869873046875,9.869196891784668,0.5096712112426758,0.2799602448940277
1713800426797592000,5.875592041015625,10.04985523223877,0.3332005441188812,0.44327038526535034
1713800426815314400,5.893314453125,10.164112091064453,0.31405797600746155,0.4486542344093323
1713800426833031700,5.91103173828125,9.926026344299316,0.2799602448940277,0.3278166949748993
1713800426850754300,5.92875439453125,9.621540069580078,0.3320041298866272,0.27816563844680786
1713800426868482800,5.94648291015625,9.482755661010742,0.39421752095222473,0.31106695532798767
1713800426886203600,5.96420361328125,9.354740142822266,0.25004997849464417,0.17168502509593964
1713800426903925800,5.98192578125,9.606584548950195,0.07836493849754333,0.33020952343940735
1713800426921651500,5.9996513671875,10.265209197998047,-0.046061836183071136,0.04307080805301666
1713800426939370800,6.017370849609375,10.728219985961914,0.2273181527853012,-0.020338991656899452
1713800426957092900,6.0350927734375,10.198209762573242,0.31824541091918945,0.13878370821475983
1713800426974814500,6.052814453125,9.559326171875,0.5330012440681458,0.3116651475429535
1713800426992537600,6.07053759765625,9.144769668579102,0.633499801158905,0.2805584669113159
1713800427010258400,6.088258544921875,9.406784057617188,0.6532405614852905,0.4013960063457489
1713800427027983600,6.105983642578125,9.672985076904297,0.7447660565376282,0.5461617708206177
1713800427045700400,6.123700439453125,9.572486877441406,0.6634100675582886,0.6604190468788147
1713800427063426600,6.141426513671875,9.510871887207031,0.6825526356697083,0.597607433795929
1713800427081146400,6.159146484375,9.644271850585938,0.6059823632240295,0.5557330846786499
1713800427098869800,6.176869873046875,9.978070259094238,0.42412781715393066,0.48095735907554626
1713800427116581600,6.19458154296875,10.06421184539795,0.4336991012096405,0.4342973232269287
1713800427134315800,6.212315673828125,9.949954986572266,0.46719861030578613,0.4001995921134949
1713800427152023600,6.2300234375,9.849455833435059,0.5102694034576416,0.45643091201782227
1713800427169762800,6.2477626953125,9.616155624389648,0.5431707501411438,0.3361915946006775
1713800427187484400,6.265484375,9.739984512329102,0.5670989751815796,0.42711883783340454
1713800427205205500,6.28320556640625,9.773484230041504,0.4713860750198364,0.42771705985069275
1713800427222927400,6.30092724609375,10.04985523223877,0.4863412082195282,0.5054838061332703
1713800427240639700,6.3186396484375,9.891928672790527,0.47676992416381836,0.5569294691085815
1713800427258369800,6.336369873046875,9.601201057434082,0.5581258535385132,0.6939185857772827
1713800427276097000,6.354096923828125,9.720243453979492,0.49591249227523804,0.5940182209014893
1713800427293816800,6.37181689453125,10.030712127685547,0.5054838061332703,0.5485545992851257
1713800427311539700,6.389539794921875,9.997213363647461,0.44327038526535034,0.5335994362831116
1713800427329259800,6.407259765625,9.696913719177246,0.44327038526535034,0.5557330846786499
1713800427346985200,6.424985107421875,9.568299293518066,0.4953143000602722,0.5647061467170715
1713800427364702500,6.442702392578125,9.56351375579834,0.4953143000602722,0.5934200286865234
1713800427382429000,6.460428955078125,9.787242889404297,0.46719861030578613,0.5754738450050354
1713800427400150500,6.478150634765625,10.183255195617676,0.4097708761692047,0.4205385744571686
1713800427417869000,6.495869140625,10.326824188232422,0.47676992416381836,0.3643072545528412
1713800427435593200,6.51359326171875,9.91705322265625,0.6293123364448547,0.2566302418708801
1713800427453316900,6.53131689453125,9.554540634155273,0.8063812255859375,0.35473597049713135
1713800427471041500,6.54904150390625,9.659226417541504,0.9074779748916626,0.4127618968486786
1713800427488762000,6.56676220703125,9.882955551147461,0.8745766878128052,0.6005984544754028
1713800427506484700,6.584484619140625,9.672985076904297,0.8793623447418213,0.6945167779922485
1713800427524206300,6.602206298828125,9.41037368774414,0.8356932997703552,0.6879364848136902
1713800427541930200,6.61993017578125,9.233902931213379,0.9361918568611145,0.8446664214134216
1713800427559656400,6.637656494140625,9.343972206115723,0.7399803996086121,0.6873382925987244
1713800427577374500,6.65537451171875,9.438488960266113,0.7208378314971924,0.8219345808029175
1713800427595096800,6.673096923828125,9.42473030090332,0.6538388133049011,0.7357929348945618
1713800427612818400,6.690818359375,9.67777156829834,0.768694281578064,0.6275177597999573
1713800427630541000,6.708541015625,9.892526626586914,0.7310073375701904,0.5814558863639832
1713800427648260900,6.7262607421875,9.844670295715332,0.7830511927604675,0.5096712112426758
1713800427665989000,6.743989013671875,9.67777156829834,0.8691928386688232,0.6089733839035034
1713800427683704000,6.7617041015625,9.035896301269531,1.0689935684204102,0.17587246000766754
1713800427701430800,6.7794306640625,9.644869804382324,1.2089736461639404,0.4372883439064026
1713800427719148000,6.79714794921875,9.807581901550293,1.1802598237991333,0.23330020904541016
1713800427736870000,6.814869873046875,10.093523979187012,1.6360924243927002,0.4265206456184387
1713800427754597400,6.832597412109375,10.222138404846191,1.2813565731048584,0.2356930375099182
1713800427772309200,6.850309326171875,10.550553321838379,1.6366907358169556,0.529412031173706
1713800427790042600,6.868042724609375,9.873982429504395,1.6839489936828613,0.4773681163787842
1713800427807759000,6.885759033203125,9.615557670593262,1.7324036359786987,0.8811569213867188
1713800427825485600,6.903485595703125,9.938589096069336,1.3830515146255493,1.0450652837753296
1713800427843211000,6.9212109375,10.023533821105957,1.1300104856491089,1.2741780281066895
1713800427860931800,6.938931884765625,10.40638542175293,1.1054840087890625,0.885344386100769
1713800427878655000,6.956655029296875,9.365508079528809,1.3980066776275635,1.394417405128479
1713800427896374800,6.974374755859375,8.263612747192383,1.5744773149490356,1.7407784461975098
1713800427914100500,6.9921005859375,8.473583221435547,1.6701902151107788,1.6995022296905518
1713800427931821300,7.0098212890625,9.270991325378418,1.6414763927459717,1.308275818824768
1713800427949544400,7.02754443359375,9.524032592773438,1.8239290714263916,1.1383854150772095
1713800427967265300,7.045265380859375,9.237491607666016,2.0919251441955566,1.246660590171814
1713800427984988700,7.06298876953125,8.736793518066406,2.14935302734375,1.4775680303573608
1713800428002717200,7.08071728515625,8.8648099899292,2.3605196475982666,1.7407784461975098
1713800428020433400,7.098433349609375,9.032307624816895,2.2642083168029785,1.3651052713394165
1713800428038155000,7.116155029296875,9.09990406036377,2.283350944519043,1.1940184831619263
1713800428055877600,7.133877685546875,9.741779327392578,2.0452651977539062,1.6504493951797485
1713800428073600500,7.1516005859375,10.370492935180664,1.9698911905288696,1.7353945970535278
1713800428091323100,7.1693232421875,10.36630630493164,1.825723648071289,1.5254244804382324
1713800428109040000,7.1870400390625,9.06580638885498,2.077568292617798,1.3507484197616577
1713800428126757400,7.20475732421875,8.48016357421875,2.406581401824951,1.1563315391540527
1713800428144488400,7.222488525390625,8.689535140991211,2.661417007446289,1.2729816436767578
1713800428162214000,7.2402138671875,8.922237396240234,2.6668007373809814,1.5607185363769531
1713800428179934200,7.257934326171875,8.993423461914062,2.7966115474700928,1.8041882514953613
1713800428197657600,7.27565771484375,9.122636795043945,2.197807550430298,1.4799607992172241
1713800428215378200,7.293378173828125,10.448858261108398,2.1505494117736816,1.1784651279449463
1713800428233102600,7.3111025390625,10.060623168945312,2.042872428894043,0.21236300468444824
1713800428250824200,7.32882421875,7.6528449058532715,2.0207388401031494,0.35413774847984314
1713800428268546600,7.346546630859375,7.229315280914307,2.6321048736572266,1.960319995880127
1713800428286269700,7.364269775390625,9.907482147216797,2.142174482345581,1.9716858863830566
1713800428303996200,7.38199609375,12.086745262145996,1.205384373664856,1.5547364950180054
1713800428321717800,7.3997177734375,11.263614654541016,1.6630117893218994,1.2113664150238037
1713800428339436300,7.417436279296875,8.928817749023438,2.4837498664855957,1.0498509407043457
1713800428357158100,7.435158203125,7.576274871826172,3.1752755641937256,0.6418746709823608
1713800428374862600,7.452862548828125,6.289534091949463,3.202194929122925,0.5575276613235474
1713800428392603000,7.470602783203125,7.984848976135254,2.717050075531006,1.0301101207733154
1713800428410320600,7.488320556640625,9.284749984741211,2.2408783435821533,1.576271891593933
1713800428428048000,7.5060478515625,9.948160171508789,2.1403799057006836,1.2323036193847656
1713800428445770800,7.523770751953125,9.422337532043457,2.073979139328003,1.7533408403396606
1713800428463494100,7.541494140625,9.2255277633667,3.0281169414520264,2.307279348373413
1713800428481214000,7.5592138671875,10.466804504394531,2.8797619342803955,1.5230315923690796
1713800428498933200,7.576933349609375,8.359326362609863,2.397010087966919,3.3074791431427
1713800428516657000,7.594656982421875,6.64486837387085,1.3310075998306274,1.1198409795761108
1713800428534381800,7.6123818359375,9.29611587524414,1.740180253982544,2.386840581893921
1713800428552089900,7.63008984375,9.963713645935059,2.693121910095215,4.018745422363281
1713800428569830100,7.647830078125,8.107481002807617,1.561316728591919,4.554139614105225
1713800428587549400,7.665549560546875,6.2398834228515625,1.9417755603790283,4.319045066833496
1713800428605270500,7.6832705078125,4.106083869934082,2.6709883213043213,3.8865420818328857
1713800428622995200,7.7009951171875,3.387638568878174,-0.1704886108636856,-0.18125630915164948
1713800428640717300,7.71871728515625,5.879165172576904,-0.6478567123413086,-2.8564319610595703
1713800428658439400,7.736439453125,14.34018611907959,-3.311068296432495,-9.761520385742188
1713800428676161300,7.754161376953125,19.451255798339844,1.7306089401245117,-9.503094673156738
1713800428693883600,7.771883544921875,3.3678979873657227,2.8767709732055664,-12.31226921081543
1713800428711606000,7.78960595703125,10.380064964294434,5.829514026641846,-7.202994346618652
1713800428729329000,7.807328857421875,10.440483093261719,9.832706451416016,-1.3489537239074707
1713800428747051000,7.825051025390625,7.899903774261475,8.574081420898438,-1.6911274194717407
1713800428764773400,7.8427734375,7.53140926361084,7.6737823486328125,-1.3178470134735107
1713800428782491000,7.860490966796875,8.81934642791748,5.904289722442627,1.3782658576965332
1713800428800219400,7.878219482421875,14.651252746582031,0.4001995921134949,-0.15732808411121368
1713800428817939700,7.895939697265625,12.547962188720703,-1.8957136869430542,4.682754039764404
1713800428835658500,7.913658447265625,9.78245735168457,-2.2582263946533203,-1.4506487846374512
1713800428853378800,7.93137890625,8.474181175231934,-1.7934205532073975,-0.5994020700454712
1713800428871106300,7.949106201171875,8.298309326171875,-4.146163463592529,-0.9475577473640442
1713800428888832000,7.96683203125,6.26859712600708,-3.1722846031188965,-1.140179991722107
1713800428906552300,7.98455224609375,0.9882357716560364,5.387440204620361,-0.3080759048461914
1713800428924274400,8.0022744140625,11.076375961303711,2.38983154296875,-1.526620864868164
1713800428941998300,8.019998291015625,12.225528717041016,2.276770830154419,-3.3230323791503906
1713800428959717600,8.037717529296875,10.557133674621582,3.4642090797424316,-4.552943229675293
1713800428977444000,8.055444091796875,7.442874908447266,4.716851711273193,-3.8985064029693604
1713800428995164700,8.07316455078125,5.505885124206543,4.246063709259033,-3.415156126022339
1713800429012887000,8.090886962890625,10.947163581848145,3.0065815448760986,-6.0777692794799805
1713800429030609200,8.108609130859374,13.265809059143066,2.940180778503418,-5.070989608764648
1713800429048331500,8.12633154296875,10.082158088684082,3.2333016395568848,-6.836294174194336
1713800429066054100,8.14405419921875,2.4287149906158447,1.4219348430633545,-9.1716890335083
1713800429083772200,8.161772216796875,-6.16391134262085,0.97926265001297,-11.273185729980469
1713800429101486800,8.17948681640625,0.9750752449035645,1.2233306169509888,-9.22433090209961
1713800429119222300,8.19722216796875,7.013961315155029,-0.3032902777194977,-7.857431411743164
1713800429136931000,8.21493115234375,9.375079154968262,2.190629243850708,-7.968099594116211
1713800429154662100,8.232662109375,11.675179481506348,2.4598217010498047,-8.883354187011719
1713800429172386800,8.25038671875,7.466204643249512,3.5497524738311768,-5.397609710693359
1713800429190112300,8.2681123046875,8.955737113952637,1.6319050788879395,-4.96630334854126
1713800429207833600,8.28583349609375,4.221537113189697,0.7890332937240601,-6.270989894866943
1713800429225556000,8.303555908203125,1.8586249351501465,1.3884353637695312,-6.671189308166504
1713800429243276800,8.32127685546875,0.3122633695602417,2.0141584873199463,-10.65822982788086
1713800429261001700,8.339001708984375,1.4524433612823486,5.093721389770508,-7.408178806304932
1713800429278719500,8.356719482421875,1.5385849475860596,6.247660160064697,-5.684150218963623
1713800429296445700,8.37444580078125,5.193023204803467,3.4534413814544678,-10.382457733154297
1713800429314167300,8.392167236328126,5.523232936859131,3.266202926635742,-10.853245735168457
1713800429331890400,8.409890380859375,5.1188459396362305,2.517249345779419,-11.22353458404541
1713800429349612500,8.427612548828124,18.482162475585938,-6.117849349975586,-10.101899147033691
1713800429367335400,8.44533544921875,8.043473243713379,-5.197210788726807,-3.62153697013855
1713800429385057300,8.463057373046874,1.1120643615722656,-0.7585247755050659,-17.068601608276367
1713800429402776800,8.48077685546875,-0.5198407173156738,1.7623138427734375,-11.398808479309082
1713800429420505300,8.49850537109375,0.022133609279990196,4.962714195251465,-7.403393268585205
1713800429438221000,8.516220947265625,3.431307554244995,10.687541961669922,-6.925426959991455
1713800429455946000,8.533946044921874,6.16391134262085,9.128020286560059,-7.526025295257568
1713800429473664800,8.551664794921875,3.061018466949463,2.056631088256836,-8.532805442810059
1713800429491392000,8.56939208984375,6.082555294036865,1.5242279767990112,-8.49990463256836
1713800429509114600,8.587114501953126,5.116453170776367,2.335394859313965,-7.226922512054443
1713800429526836500,8.60483642578125,5.038087844848633,2.3748764991760254,-6.50189733505249
1713800429544558300,8.622558349609376,4.898705959320068,2.362314224243164,-7.700103282928467
1713800429562283000,8.640282958984375,3.726821184158325,4.296911239624023,-9.403194427490234
1713800429580003000,8.658003173828124,2.3048863410949707,5.600401401519775,-10.36929702758789
1713800429597726200,8.675726318359375,2.2995026111602783,4.298107624053955,-10.194621086120605
1713800429615448600,8.693448486328125,2.093719720840454,3.982254981994629,-9.952945709228516
1713800429633171000,8.7111708984375,1.9872392416000366,4.3280181884765625,-9.490532875061035
1713800429650893600,8.7288935546875,1.5858432054519653,4.615755081176758,-9.08255672454834
1713800429668615700,8.74661572265625,1.1808580160140991,4.6438703536987305,-9.10409164428711
1713800429686338300,8.76433837890625,0.6699903607368469,4.716253280639648,-8.758927345275879
1713800429704060700,8.782060791015626,0.33020952343940735,4.687539577484131,-8.327022552490234
1713800429721783000,8.799782958984375,0.1094716340303421,4.526023864746094,-7.8041911125183105
1713800429739505000,8.8175048828125,-0.4253242313861847,4.43031120300293,-7.497311592102051
1713800429757222000,8.835221923828126,-0.9421738982200623,4.363312244415283,-6.9475603103637695
1713800429774951400,8.852951416015625,-1.363310694694519,4.527220249176025,-6.272186279296875
1713800429792668000,8.87066796875,-2.4705893993377686,4.675575256347656,-5.816353797912598
1713800429810394600,8.88839453125,-3.445664644241333,4.23649263381958,-6.519843578338623
1713800429828112400,8.9061123046875,-4.572085857391357,4.438685894012451,-7.6474609375
1713800429845838300,8.92383837890625,-4.28734016418457,5.385047435760498,-8.655437469482422
1713800429863563000,8.94156298828125,-4.990829944610596,5.2869415283203125,-9.40917682647705
1713800429881284400,8.959284423828125,-4.454239368438721,6.220142364501953,-10.081560134887695
1713800429899004000,8.97700390625,-4.683950424194336,6.762714862823486,-11.389835357666016
1713800429916727800,8.994727783203125,-3.7645082473754883,7.957331657409668,-11.115259170532227
1713800429934451700,9.01245166015625,-3.8321053981781006,6.9481587409973145,-12.419347763061523
1713800429952175000,9.030175048828125,-1.9519450664520264,6.786045074462891,-13.295121192932129
1713800429969896200,9.047896240234374,-1.5409778356552124,6.153741836547852,-13.536197662353516
1713800429987618600,9.06561865234375,-3.3780672550201416,7.001399040222168,-14.524433135986328
1713800430005341400,9.083341552734375,-0.24586252868175507,13.615160942077637,-10.603793144226074
1713800430023063300,9.101063232421875,-0.05563312768936157,11.409576416015625,-7.6289167404174805
1713800430040786000,9.118785888671875,-3.4857444763183594,9.41037368774414,-8.321041107177734
1713800430058508000,9.136508056640626,3.0562326908111572,8.980263710021973,-7.564908981323242
1713800430076229600,9.154229736328125,-1.6821542978286743,7.559525012969971,-6.175277233123779
1713800430093953500,9.17195361328125,-2.1678972244262695,6.154938220977783,-6.361319065093994
1713800430111670500,9.18967041015625,1.999801516532898,8.568697929382324,-6.751348972320557
1713800430129393000,9.207392822265625,3.248854875564575,8.737990379333496,-6.767500877380371
1713800430147119600,9.22511962890625,-0.2626122832298279,5.237290382385254,-4.4374895095825195
1713800430164842000,9.242842041015624,-0.3080759048461914,5.614160060882568,-5.167300701141357
1713800430182564900,9.26056494140625,0.21595224738121033,4.85324239730835,-5.14576530456543
1713800430200287000,9.278286865234374,-1.4638092517852783,5.347958564758301,-7.574480056762695
1713800430218008600,9.296008544921875,-0.857228696346283,4.5445685386657715,-3.3403804302215576
1713800430235725300,9.313725341796875,-0.719641387462616,4.478765964508057,-4.7850470542907715
1713800430253454000,9.3314541015625,1.7042878866195679,2.909672260284424,-7.400402069091797
1713800430271177000,9.349177001953125,0.5934200286865234,3.647858142852783,-2.5357937812805176
1713800430288894500,9.36689453125,-1.8616160154342651,4.456632137298584,-5.478965759277344
1713800430306621200,9.38462109375,1.3597214221954346,4.7264227867126465,-6.74656343460083
1713800430324343600,9.402343505859376,0.7202396392822266,3.87876558303833,-8.273183822631836
1713800430342066200,9.420066162109375,0.1495514214038849,4.107280254364014,-8.672187805175781
1713800430359788800,9.437788818359374,0.4588237404823303,3.092125177383423,-8.581260681152344
1713800430377510700,9.4555107421875,0.061016976833343506,1.8586249351501465,-9.486943244934082
1713800430395231700,9.473231689453126,0.45164528489112854,4.499104976654053,-9.151947975158691
1713800430412956700,9.490956787109376,-1.4344971179962158,7.106084823608398,-7.6049885749816895
1713800430430673400,9.50867333984375,1.994417667388916,2.9114668369293213,-8.824729919433594
1713800430448388000,9.52638818359375,-1.7641085386276245,4.687539577484131,-9.375079154968262
1713800430466122800,9.544122802734375,-2.715853691101074,4.665405750274658,-9.967901229858398
1713800430483844900,9.561844970703126,-0.6472585201263428,5.406582832336426,-9.801599502563477
1713800430501567500,9.5795673828125,1.8580267429351807,4.491328239440918,-9.257232666015625
1713800430519288300,9.597288330078126,0.24047867953777313,6.2500529289245605,-10.061819076538086
1713800430537013200,9.61501318359375,0.43609192967414856,6.236293792724609,-9.979865074157715
1713800430554734300,9.632734375,-1.2711870670318604,6.440282344818115,-9.694520950317383
1713800430572457200,9.650457275390625,1.0055837631225586,6.306882381439209,-10.796415328979492
1713800430590169300,9.66816943359375,1.215553879737854,5.917450428009033,-9.359525680541992
1713800430607899600,9.685899658203125,1.85383939743042,6.113661766052246,-7.69531774520874
1713800430625623800,9.703623779296874,2.537588357925415,6.0263237953186035,-6.689733982086182
1713800430643346400,9.721346435546875,1.2023934125900269,6.976872444152832,-4.88853645324707
1713800430661068000,9.739068115234375,0.11246266216039658,7.10429048538208,-5.243870735168457
1713800430678791000,9.756791015625,0.7268198728561401,7.244868755340576,-6.708876609802246
1713800430696513000,9.774512939453125,0.9786644577980042,6.768098831176758,-8.086544036865234
1713800430714235000,9.79223486328125,1.3926228284835815,6.083751678466797,-7.917850017547607
1713800430731954200,9.8099541015625,0.49292147159576416,5.779862880706787,-8.401200294494629
1713800430749675500,9.827675537109375,0.9074779748916626,4.511068820953369,-8.505288124084473
1713800430767402800,9.84540283203125,-0.5252245664596558,3.5336008071899414,-7.8424763679504395
1713800430785125400,9.86312548828125,-0.11724831163883209,3.291327476501465,-7.096513748168945
1713800430802828800,9.880828857421875,0.5647061467170715,3.4582269191741943,-5.6895341873168945
1713800430820568600,9.898568603515624,0.7597211599349976,3.0077781677246094,-3.9571304321289062
1713800430838293000,9.91629296875,-0.9858429431915283,2.396411895751953,-2.1230318546295166
1713800430856014800,9.934014892578125,-3.4468610286712646,6.222535133361816,-1.1078768968582153
1713800430873736400,9.951736328125,-3.559323787689209,4.730011940002441,-0.30927231907844543
1713800430891457800,9.969457763671874,-4.136591911315918,4.289732933044434,-1.7539390325546265
1713800430909182500,9.987182373046876,-1.8065811395645142,6.119643688201904,-2.9958138465881348
1713800430926904000,10.004904052734375,-1.9824535846710205,8.166703224182129,-4.292125701904297
1713800430944625000,10.022625,-1.241276741027832,7.610970497131348,-6.859025955200195
1713800430962349800,10.040349853515625,-3.4480574131011963,11.173285484313965,-6.320042610168457
1713800430980071000,10.05807080078125,-0.062213387340307236,8.060821533203125,-5.778068542480469
1713800430997793500,10.07579345703125,-0.7728816866874695,7.510472297668457,-7.218547821044922
1713800431015514600,10.0935146484375,-0.4695914387702942,10.415358543395996,-6.39721155166626
1713800431033236700,10.11123681640625,0.5144568681716919,11.751749992370605,-6.942774772644043
1713800431050961400,10.12896142578125,-1.2999008893966675,11.772089004516602,-7.445267677307129
1713800431068678100,10.14667822265625,-10.070194244384766,12.002398490905762,-4.314259052276611
1713800431086404600,10.164404541015625,-9.623334884643555,9.916455268859863,-5.7164530754089355
1713800431104122400,10.182122314453125,-4.037888050079346,10.269396781921387,-5.346762180328369
1713800431121849300,10.199849365234375,-2.8809585571289062,10.838290214538574,-6.378666877746582
1713800431139572200,10.217572265625,2.554936408996582,15.340984344482422,-3.290131092071533
1713800431157294300,10.23529443359375,3.8045880794525146,19.285552978515625,3.3200414180755615
1713800431175011800,10.25301171875,-1.194616675376892,9.257232666015625,4.863411903381348
1713800431192737500,10.270737548828125,-2.1954147815704346,5.091926574707031,-2.0793628692626953
1713800431210462700,10.288462646484374,-4.602594375610352,9.521639823913574,-3.056830883026123
1713800431228183000,10.30618310546875,-0.776470959186554,11.910274505615234,-3.9218363761901855
1713800431245906200,10.32390625,2.0171494483947754,10.949556350708008,-2.6362924575805664
1713800431263630600,10.341630615234376,1.9902302026748657,9.840482711791992,-1.6079767942428589
1713800431281348600,10.3593486328125,-1.1425727605819702,7.680362701416016,-1.6588243246078491
1713800431299068700,10.377068603515625,-2.022533416748047,5.372485160827637,-0.9188438653945923
1713800431316795100,10.394795166015625,8.937790870666504,-3.6526436805725098,-1.181456208229065
1713800431334516500,10.4125166015625,-4.573880672454834,-0.11066804826259613,-2.8737800121307373
1713800431352240000,10.430240234375,0.23030917346477509,4.958526611328125,-5.164907455444336
1713800431369962500,10.44796240234375,1.1868400573730469,8.390432357788086,-2.568695068359375
1713800431387679700,10.4656796875,-0.8835497498512268,9.546165466308594,-5.008177757263184
1713800431405406700,10.48340673828125,-0.45224347710609436,11.024332046508789,-4.11625337600708
1713800431423129300,10.50112939453125,-2.2295124530792236,8.743971824645996,-3.004786968231201
1713800431440851200,10.518851318359374,-2.8241288661956787,6.532405853271484,-2.129014015197754
1713800431458573800,10.53657373046875,-0.48574298620224,6.561119556427002,-1.412961721420288
1713800431476291300,10.554291259765625,-0.43489551544189453,7.502695560455322,-2.365305185317993
1713800431494018300,10.572018310546875,-1.2442678213119507,8.761320114135742,-2.4879374504089355
1713800431511740000,10.589739990234374,3.5736806392669678,12.428918838500977,-1.5607185363769531
1713800431529463000,10.607463134765625,0.4654040038585663,12.455240249633789,-3.025724172592163
1713800431547179500,10.625179443359375,-2.0309081077575684,11.410174369812012,-2.012363910675049
1713800431564908300,10.642908203125,-2.851048231124878,11.059626579284668,-1.970489501953125
1713800431582629600,10.660629638671875,-1.9453648328781128,12.1537446975708,-3.4755749702453613
1713800431600352300,10.678352294921876,-1.5361921787261963,13.86221981048584,-4.510470867156982
1713800431618075000,10.696074951171875,1.5720844268798828,15.327225685119629,-4.599005222320557
1713800431635797200,10.71379736328125,4.18145751953125,14.168500900268555,-3.8398821353912354
1713800431653519000,10.73151904296875,2.919243574142456,11.097911834716797,-2.9838497638702393
1713800431671240400,10.749240478515626,5.478367328643799,8.585447311401367,-1.4590235948562622
1713800431688960800,10.766960693359374,-1.5242279767990112,8.251648902893066,-3.063411235809326
1713800431706681900,10.784681884765625,-6.716653347015381,8.758927345275879,-2.465205430984497
1713800431724407800,10.80240771484375,-6.037689685821533,16.538591384887695,-0.3900300860404968
1713800431742131500,10.82013134765625,-2.282752752304077,16.741981506347656,-1.7258232831954956
1713800431759852800,10.837852783203125,-2.750549554824829,15.135799407958984,-0.008973085321485996
1713800431777570800,10.85557080078125,-4.456632137298584,14.390435218811035,-0.24945175647735596
1713800431795297500,10.873297607421875,-4.604987144470215,12.474382400512695,-0.2386840581893921
1713800431813020200,10.891020263671875,-1.2592228651046753,9.527023315429688,-0.5790630578994751
1713800431830742300,10.9087421875,0.3846462368965149,6.678966045379639,-0.6825526356697083
1713800431848465000,10.92646484375,1.49611234664917,4.222733974456787,-2.9491539001464844
1713800431866185200,10.944185302734375,-0.6059823632240295,5.469394207000732,-1.2197413444519043
1713800431883910700,10.96191064453125,-0.4462614357471466,4.83888578414917,-0.45643091201782227
1713800431901628000,10.9796279296875,-2.138585329055786,3.81655216217041,-0.5353940725326538
1713800431919354400,10.997354248046875,-3.3206396102905273,3.2344980239868164,-0.7058826684951782
1713800431937075700,11.01507568359375,-3.201596736907959,4.092923164367676,-0.5318048596382141
1713800431954798800,11.032798828125,-3.260220766067505,3.5330026149749756,-0.1944168359041214
1713800431972511700,11.05051171875,-4.551746845245361,2.8701908588409424,-0.1986042857170105
1713800431990242600,11.06824267578125,-5.197809219360352,3.5718860626220703,-0.9744769930839539
1713800432007966500,11.085966552734375,-5.127220630645752,5.437689304351807,-1.8640087842941284
1713800432025684000,11.10368408203125,-5.2941203117370605,7.867002487182617,-1.5990036725997925
1713800432043410200,11.12141015625,-3.8973097801208496,8.764310836791992,-1.618146300315857
1713800432061132500,11.139132568359376,-3.0562326908111572,9.880562782287598,-2.1786649227142334
1713800432078850300,11.156850341796876,-4.355535507202148,11.870793342590332,-2.441875457763672
1713800432096576800,11.17457666015625,-6.8273210525512695,11.175678253173828,-3.187838077545166
1713800432114299600,11.192299560546875,-11.316854476928711,12.663415908813477,-1.716252088546753
1713800432132021800,11.210021728515626,-11.35214900970459,13.666007995605469,-0.9523434042930603
1713800432149739000,11.227739013671876,-9.641879081726074,13.798212051391602,-0.6358926296234131
1713800432167465200,11.24546533203125,-6.437291145324707,13.030116081237793,-1.1078768968582153
1713800432185186800,11.263186767578125,-1.5355939865112305,12.215957641601562,-1.836491346359253
1713800432202914300,11.280914306640625,-1.4727823734283447,11.414960861206055,-2.2857437133789062
1713800432220630800,11.298630859375,-11.10329532623291,8.986844062805176,1.2945170402526855
1713800432238356700,11.316356689453125,0.7202396392822266,6.812366008758545,5.000999450683594
1713800432256079000,11.3340791015625,2.8761727809906006,8.57468032836914,1.6348960399627686
1713800432273800400,11.351800537109375,-8.974879264831543,11.861222267150879,-3.954139471054077
1713800432291522300,11.369522216796875,-0.7621139883995056,11.051251411437988,-2.4011974334716797
1713800432309243400,11.387243408203124,7.9621171951293945,10.089336395263672,-2.9485557079315186
1713800432326968300,11.40496826171875,-1.8370895385742188,8.938986778259277,-1.9573289155960083
1713800432344685300,11.422685302734376,-7.95134973526001,8.334799766540527,-0.7328019142150879
1713800432362411300,11.440411376953126,-3.087339401245117,7.523632526397705,0.04546362906694412
1713800432380134000,11.4581337890625,2.337787628173828,5.344369411468506,1.0115658044815063
1713800432397856300,11.475856201171876,-0.39541393518447876,5.026124000549316,1.6289139986038208
1713800432415578600,11.49357861328125,-2.558525562286377,6.686144828796387,-0.09511470049619675
1713800432433300500,11.511300537109374,-2.602792739868164,7.858029365539551,-2.6841487884521484
1713800432451018000,11.52901806640625,-1.074377417564392,9.327820777893066,-1.8807586431503296
1713800432468745200,11.5467451171875,-0.47916272282600403,8.758927345275879,-1.7012969255447388
1713800432486467800,11.5644677734375,-0.9589236974716187,7.878966808319092,-0.794417142868042
1713800432504189400,11.582189453125,0.486939400434494,7.678567886352539,-1.3148560523986816
1713800432521912300,11.599912353515625,0.5144568681716919,7.99083137512207,-0.9517452120780945
1713800432539634000,11.617634033203124,-0.4941178858280182,8.82532787322998,0.03469592705368996
1713800432557358000,11.635358154296876,-1.4913266897201538,9.495916366577148,0.46839502453804016
1713800432575078700,11.65307861328125,-1.9196419715881348,9.638887405395508,0.3900300860404968
1713800432592801500,11.670801513671876,-0.9272187948226929,10.401001930236816,0.06759724020957947
1713800432610523600,11.688523681640625,-0.05802594870328903,11.111071586608887,-2.0057835578918457
1713800432628245000,11.706244873046876,1.4105689525604248,11.291729927062988,-5.292325496673584
1713800432645969200,11.72396923828125,-1.7270197868347168,13.51705551147461,-4.603192329406738
1713800432663686000,11.741685791015625,-3.105883836746216,13.442877769470215,-2.612962245941162
1713800432681412600,11.75941259765625,-2.5986053943634033,11.218151092529297,-1.8400806188583374
1713800432699135200,11.77713525390625,0.4773681163787842,13.434502601623535,-2.1756739616394043
1713800432716856800,11.79485693359375,2.297109842300415,14.784652709960938,-3.297907829284668
1713800432734582500,11.81258251953125,1.3226326704025269,11.915060043334961,-2.9210381507873535
1713800432752299000,11.830299072265625,2.38983154296875,10.718050956726074,-1.3088740110397339
1713800432770024400,11.8480244140625,3.311068296432495,12.77169132232666,1.7910277843475342
1713800432787746000,11.86574609375,4.419543266296387,16.086946487426758,1.2969099283218384
1713800432805468400,11.883468505859375,-2.004587173461914,17.611772537231445,-0.4253242313861847
1713800432823186400,11.9011865234375,-7.215556621551514,15.3158597946167,-0.34217363595962524
1713800432840912100,11.918912109375,-6.105287075042725,12.78066349029541,2.6524438858032227
1713800432858637300,11.93663720703125,-3.0723843574523926,11.93061351776123,2.0309081077575684
1713800432876357600,11.954357666015625,0.3643072545528412,11.044073104858398,1.92741858959198
1713800432894080000,11.972080078125,3.1794631481170654,10.133604049682617,2.3258235454559326
1713800432911802400,11.98980224609375,3.7603209018707275,7.572087287902832,0.5563312768936157
1713800432929524500,12.0075244140625,2.8893332481384277,4.226921081542969,-1.848455548286438
1713800432947245300,12.025245361328125,2.1296122074127197,3.025724172592163,-3.056830883026123
1713800432964970500,12.042970458984374,-2.105085611343384,3.875176191329956,-2.090130567550659
1713800432982687200,12.060687255859374,-3.1621150970458984,4.374678134918213,-0.8225327730178833
1713800433000413700,12.07841357421875,-1.9800606966018677,3.4743785858154297,0.5670989751815796
1713800433018135800,12.0961357421875,-1.1563315391540527,1.9286150932312012,0.7657032608985901
1713800433035858200,12.113858154296874,-2.743969440460205,0.7860422134399414,0.5539384484291077
1713800433053571800,12.13157177734375,-5.945566177368164,0.2967100143432617,0.04666004329919815
1713800433071302400,12.149302490234374,-7.1611199378967285,2.217548370361328,-1.308275818824768
1713800433089023700,12.167023681640625,-5.7888360023498535,7.4015984535217285,-3.5778679847717285
1713800433106750500,12.18475048828125,-12.645469665527344,11.996416091918945,-5.4418768882751465
1713800433124463900,12.2024638671875,-12.488739967346191,14.682957649230957,-1.664208173751831
1713800433142193000,12.22019287109375,-8.170890808105469,15.990635871887207,1.975873351097107
1713800433159914200,12.237914306640626,-4.109074592590332,12.818350791931152,1.3483555316925049
1713800433177637000,12.25563720703125,-4.280759811401367,10.435697555541992,2.527418851852417
1713800433195359000,12.27335888671875,-5.863013744354248,13.487743377685547,6.0370917320251465
1713800433213079800,12.291079833984375,-6.9068827629089355,17.07219123840332,5.100301265716553
1713800433230804700,12.3088046875,-4.086941242218018,17.013566970825195,7.221538543701172
1713800433248525300,12.326525390625,-1.9776679277420044,4.799404144287109,6.2500529289245605
1713800433266247200,12.3442470703125,-6.818946361541748,-1.4715858697891235,0.22971096634864807
1713800433283971000,12.36197119140625,-0.38763725757598877,7.95434045791626,-3.7196428775787354
1713800433301687600,12.3796875,-1.43389892578125,15.165111541748047,-6.745367050170898
1713800433319414800,12.397414794921875,1.6372889280319214,15.159130096435547,-2.5573291778564453
1713800433337134300,12.41513427734375,0.15912270545959473,12.742379188537598,-0.9768698215484619
1713800433354861600,12.432861572265624,-7.526025295257568,6.867401123046875,0.2835494875907898
1713800433372581400,12.450581298828125,-3.418745279312134,5.067399978637695,0.5120640397071838
1713800433390303700,12.4683037109375,0.8757730722427368,5.791827201843262,0.6119644045829773
1713800433408025900,12.48602587890625,1.423729419708252,6.68853759765625,0.7932206988334656
1713800433425743000,12.5037431640625,0.22791635990142822,6.705885410308838,0.6185446381568909
1713800433443470300,12.52147021484375,-0.5389832854270935,6.843472957611084,0.494716078042984
1713800433461193000,12.53919287109375,-1.5607185363769531,6.954739093780518,-0.4989035129547119
1713800433478910500,12.556910400390626,-1.9627127647399902,8.015357971191406,-1.4063814878463745
1713800433496631800,12.5746318359375,0.04307080805301666,8.422137260437012,-2.6668007373809814
1713800433514358300,12.592358154296875,0.6795616149902344,7.477570533752441,-3.5371899604797363
1713800433532083000,12.6100830078125,0.7639086246490479,6.908079147338867,-3.222533941268921
1713800433549804300,12.62780419921875,1.882553219795227,7.179066181182861,-2.733201742172241
1713800433567526000,12.64552587890625,1.6845471858978271,8.493922233581543,-1.7168502807617188
1713800433585247500,12.66324755859375,0.41575294733047485,10.251450538635254,-1.1497513055801392
1713800433602972000,12.680971923828125,-2.0931215286254883,11.193026542663574,-0.39182472229003906
1713800433620688600,12.698688720703124,-1.5882359743118286,10.815558433532715,-0.3128615617752075
1713800433638415000,12.7164150390625,-2.925823926925659,11.406585693359375,-0.9595218896865845
1713800433656137200,12.73413720703125,-1.2765709161758423,12.128620147705078,-2.3270199298858643
1713800433673859800,12.75185986328125,0.3966103494167328,11.648261070251465,-4.005585193634033
1713800433691582500,12.76958251953125,-0.7824530005455017,11.925827980041504,-3.445066452026367
1713800433709303800,12.7873037109375,-2.4436700344085693,11.839088439941406,-2.568096876144409
1713800433727026400,12.8050263671875,1.721037745475769,14.324034690856934,-3.507279872894287
1713800433744748500,12.82274853515625,0.47198426723480225,14.999408721923828,-4.887938499450684
1713800433762471400,12.840471435546876,3.1417760848999023,12.471989631652832,-5.523232936859131
1713800433780183800,12.858183837890625,4.201796531677246,11.760723114013672,-3.008376359939575
1713800433797911800,12.875911865234375,4.119842529296875,11.026126861572266,0.5198407173156738
1713800433815638300,12.89363818359375,3.769293785095215,13.824532508850098,3.283550977706909
1713800433833360100,12.911360107421874,3.0999016761779785,16.740785598754883,1.1461620330810547
1713800433851081700,12.929081787109375,-2.293520450592041,16.417156219482422,-1.2448660135269165
1713800433868804600,12.9468046875,-4.803591251373291,14.383256912231445,0.973878800868988
1713800433886525400,12.964525390625,-5.286343574523926,13.069597244262695,2.8869404792785645
1713800433904249000,12.9822490234375,-1.2191431522369385,10.960922241210938,2.2366909980773926
1713800433921972200,12.99997216796875,3.1824541091918945,9.220144271850586,2.93001127243042
1713800433939688400,13.0176884765625,6.540780544281006,9.528818130493164,1.9070796966552734
1713800433957415400,13.03541552734375,4.023531436920166,6.6915283203125,-1.3088740110397339
1713800433975138000,13.053137939453125,-0.41874396800994873,5.172684192657471,-3.246462106704712
1713800433992859400,13.070859375,-3.6161532402038574,5.368896007537842,-3.5192439556121826
1713800434010582300,13.088582275390625,-1.8969101905822754,5.405984401702881,-2.9790642261505127
1713800434028304400,13.106304443359376,0.4384847581386566,3.428914785385132,-1.6648063659667969
1713800434046027000,13.124027099609375,-0.33439695835113525,2.176870346069336,0.07956135272979736
1713800434063748600,13.14174853515625,-1.500898003578186,1.2484551668167114,1.0917253494262695
1713800434081471200,13.15947119140625,-2.9449665546417236,0.6095715761184692,0.9768698215484619
1713800434099188500,13.1771884765625,-3.4121651649475098,1.0737791061401367,1.036690354347229
1713800434116916200,13.194916259765625,-3.7698919773101807,2.0518453121185303,-0.41934216022491455
1713800434134637000,13.212636962890626,-5.894718647003174,5.528018474578857,-1.9399809837341309
1713800434152361200,13.230361328125,-6.808178424835205,9.708279609680176,-1.9878374338150024
1713800434170077700,13.24807763671875,-9.19442081451416,14.32882022857666,-3.4755749702453613
1713800434187803600,13.2658037109375,-9.848857879638672,18.163318634033203,-3.985246181488037
1713800434205527300,13.28352734375,-7.378268718719482,17.333009719848633,0.06520441919565201
1713800434223248000,13.301247802734375,-11.063814163208008,11.027322769165039,1.2161520719528198
1713800434240972000,13.318971923828125,-12.728021621704102,5.19541597366333,-0.9864411354064941
1713800434258689300,13.336689208984374,-7.868198871612549,5.874379634857178,-0.14416755735874176
1713800434276415700,13.354415771484375,-6.299105644226074,11.245668411254883,1.8807586431503296
1713800434294138000,13.37213818359375,-2.2648067474365234,14.22832202911377,3.145963668823242
1713800434311860500,13.389860595703125,4.417150497436523,16.363916397094727,5.256433010101318
1713800434329582800,13.407582763671876,0.9780662655830383,14.273785591125488,4.36391019821167
1713800434347304700,13.4253046875,-8.051250457763672,5.516054630279541,0.37866419553756714
1713800434365027000,13.443027099609376,-1.2083754539489746,5.197210788726807,-0.5563312768936157
1713800434382749200,13.460749267578125,-0.4977070987224579,8.309675216674805,-3.486342668533325
1713800434400471800,13.478471923828126,4.8161540031433105,10.095318794250488,-4.695316314697266
1713800434418193400,13.496193359375,4.271188259124756,11.825927734375,-3.78544545173645
1713800434435916000,13.513916015625,-1.9160526990890503,9.761520385742188,-2.3772692680358887
1713800434453635600,13.531635498046874,-4.033102512359619,8.100302696228027,-0.8901300430297852
1713800434471358700,13.549358642578126,-1.456032633781433,6.81595516204834,-0.49351966381073
1713800434489079300,13.567079345703124,-0.34277185797691345,6.536593437194824,0.26201409101486206
1713800434506808000,13.58480810546875,-1.6719847917556763,6.878767013549805,0.005982056725770235
1713800434524525600,13.602525634765625,-0.9469595551490784,7.51286506652832,-1.672582983970642
1713800434542250000,13.62025,0.2027917206287384,8.423932075500488,-1.9076778888702393
1713800434559971300,13.637971435546875,0.06281159073114395,8.779864311218262,-1.2496516704559326
1713800434577690600,13.655690673828126,-1.1084750890731812,8.359326362609863,-0.11306086927652359
1713800434595415800,13.673415771484375,-1.6737794876098633,7.432705402374268,-0.8997012972831726
1713800434613138400,13.691138427734375,-1.0085747241973877,7.9585280418396,-1.7341982126235962
1713800434630860300,13.7088603515625,1.033101201057434,8.693124771118164,-2.0452651977539062
1713800434648582700,13.726582763671875,1.3908281326293945,9.113663673400879,-0.6161518096923828
1713800434666304800,13.7443046875,-1.6037893295288086,9.229117393493652,1.4021940231323242
1713800434684027400,13.76202734375,-2.100898265838623,9.378668785095215,2.0195422172546387
1713800434701749000,13.7797490234375,0.10289137065410614,10.109675407409668,-0.13160525262355804
1713800434719471600,13.7974716796875,-0.9290133714675903,12.359527587890625,-2.1720848083496094
1713800434737193700,13.81519384765625,0.49651068449020386,11.777473449707031,-3.9188451766967773
1713800434754916400,13.832916259765625,-0.9672985672950745,11.60818099975586,-3.799802303314209
1713800434772638200,13.85063818359375,-3.059821844100952,12.257233619689941,-3.6783666610717773
1713800434790360600,13.868360595703125,-0.5485545992851257,14.614762306213379,-4.709074974060059
1713800434808082400,13.88608251953125,1.358525037765503,15.39781379699707,-4.814957141876221
1713800434825805300,13.903805419921875,3.2171499729156494,13.923834800720215,-3.2883365154266357
1713800434843527000,13.92152685546875,2.8624141216278076,11.388639450073242,-1.5050854682922363
1713800434861248300,13.939248291015625,1.8610178232192993,11.318649291992188,1.9040886163711548
1713800434878968000,13.956968017578125,0.981655478477478,15.017952919006348,3.0861430168151855
1713800434896690000,13.97468994140625,2.674577474594116,16.996219635009766,-0.02512463741004467
1713800434914414600,13.99241455078125,-0.3284149169921875,16.30230140686035,-0.14476576447486877
1713800434932139300,14.01013916015625,-4.490131855010986,14.791831016540527,1.5726827383041382
1713800434949860400,14.0278603515625,-3.5874392986297607,13.70788288116455,2.407179594039917
1713800434967583200,14.045583251953126,0.1543370634317398,11.632707595825195,1.9459630250930786
1713800434985304800,14.063304931640625,0.6203392744064331,9.053244590759277,0.5383850932121277
1713800435003027000,14.08102685546875,3.4133615493774414,8.514859199523926,0.38344982266426086
1713800435020749300,14.098749267578125,1.1623135805130005,6.741179466247559,-0.997208833694458
1713800435038471700,14.1164716796875,-0.8608179688453674,5.117649555206299,-1.999801516532898
1713800435056193300,14.134193359375,-0.27397820353507996,4.700700283050537,-2.3784656524658203
1713800435073915600,14.15191552734375,0.5018945336341858,3.768097400665283,-2.0548365116119385
1713800435091638500,14.169638427734375,0.001794616924598813,2.252244234085083,-0.867398202419281
1713800435109360000,14.187360107421876,0.08853443711996078,1.3399807214736938,0.4055834412574768
1713800435127082000,14.20508203125,-0.7716853022575378,0.6604190468788147,1.0289137363433838
1713800435144799500,14.222799560546875,-3.0550363063812256,0.24526432156562805,0.9613165259361267
1713800435162525700,14.240525634765625,-4.6199421882629395,0.8536394834518433,-0.020937198773026466
1713800435180249000,14.2582490234375,-6.150750637054443,4.140181541442871,-0.9846464991569519
1713800435197972500,14.275972412109375,-5.8343000411987305,7.963313579559326,-1.0013962984085083
1713800435215689000,14.29368896484375,-7.476972579956055,12.827921867370605,-1.0007981061935425
1713800435233414700,14.31141455078125,-11.962318420410156,17.67338752746582,-3.5509488582611084
1713800435251139000,14.32913916015625,-11.041680335998535,17.663219451904297,-2.066202402114868
1713800435268855800,14.346855712890624,-6.570092678070068,14.029717445373535,0.31345975399017334
1713800435286582000,14.36458203125,-8.511270523071289,7.649255752563477,1.5236297845840454
1713800435304305200,14.38230517578125,-11.102697372436523,7.763513088226318,2.6189444065093994
1713800435322011600,14.40001171875,-10.217352867126465,12.835699081420898,1.9920248985290527
1713800435339748900,14.417748779296875,-3.583251953125,14.666208267211914,2.551347255706787
1713800435357471000,14.435470947265625,0.9912267923355103,15.238691329956055,3.1387851238250732
1713800435375193600,14.453193603515626,-2.4670002460479736,8.422736167907715,3.0652058124542236
1713800435392921000,14.470921142578124,-5.554339408874512,0.7076773047447205,1.5044872760772705
1713800435410638300,14.488638427734376,1.4985052347183228,4.001996040344238,1.0809576511383057
1713800435428360200,14.506360107421875,-0.48454657196998596,12.818948745727539,-2.492722988128662
1713800435446077400,14.524077392578125,-1.3256237506866455,15.16032600402832,-4.722833633422852
1713800435463804700,14.5418046875,0.7094719409942627,12.301501274108887,-3.3206396102905273
1713800435481526800,14.55952685546875,-0.6795616149902344,8.711071014404297,-1.6504493951797485
1713800435499247900,14.577247802734375,-1.674377679824829,6.795616149902344,-0.7573283910751343
1713800435516967700,14.5949677734375,-1.3046865463256836,6.088537216186523,-0.1740778535604477
1713800435534687700,14.612687744140626,-0.08853443711996078,6.588038921356201,-0.3756731450557709
1713800435552416500,14.63041650390625,-1.29810631275177,6.604788780212402,-0.6981059908866882
1713800435570137900,14.648137939453125,-0.9601200819015503,7.200003147125244,-0.4331009089946747
1713800435587860000,14.66585986328125,-0.8207381963729858,7.630711555480957,-0.7082754969596863
1713800435605579000,14.6835791015625,-1.2233306169509888,7.613363265991211,-1.6983058452606201
1713800435623307500,14.7013076171875,-1.445863127708435,7.913662910461426,-2.0757737159729004
1713800435641023700,14.719023681640625,-0.5545366406440735,7.540980339050293,-2.2091734409332275
1713800435658751700,14.736751708984375,0.35473597049713135,6.814758777618408,-1.9567307233810425
1713800435676471300,14.75447119140625,-0.06640082597732544,7.917850017547607,-1.0558329820632935
1713800435694193000,14.77219287109375,-0.15732808411121368,9.57069206237793,-0.9068797826766968
1713800435711915300,14.789915283203126,-0.3529413342475891,10.01156997680664,-0.6783652305603027
1713800435729638100,14.80763818359375,-0.30628129839897156,9.53360366821289,-0.363709032535553
1713800435747360300,14.8253603515625,-0.7878368496894836,10.471590042114258,-0.3367897868156433
1713800435765081900,14.843081787109375,-0.4211367964744568,12.17946720123291,-1.5056836605072021
1713800435782804500,14.860804443359376,-0.4378865361213684,12.519248008728027,-3.7567315101623535
1713800435800526600,14.878526611328125,-1.6037893295288086,12.357732772827148,-4.561318397521973
1713800435818243000,14.8962431640625,-3.5575289726257324,12.53719425201416,-4.721039295196533
1713800435835971800,14.913971923828125,-1.9423737525939941,15.128621101379395,-5.656632900238037
1713800435853688800,14.931688720703125,0.3086741268634796,15.667006492614746,-6.061617851257324
1713800435871415600,14.94941552734375,2.3192434310913086,14.509478569030762,-4.323830604553223
1713800435889138000,14.967137939453124,2.819941520690918,12.337393760681152,-1.4757733345031738
1713800435906858200,14.984858154296875,2.066202402114868,9.229715347290039,1.6157535314559937
1713800435924585200,15.002585205078125,0.20757736265659332,11.472986221313477,3.300898790359497
1713800435942302200,15.02030224609375,2.245065927505493,15.79262924194336,1.6450655460357666
1713800435960026600,15.038026611328124,-1.5302101373672485,16.875980377197266,0.14895321428775787
1713800435977748200,15.055748291015625,-2.3946173191070557,14.533406257629395,0.4833501875400543
1713800435995470800,15.073470947265625,-3.899702787399292,12.641282081604004,1.3256237506866455
1713800436013193200,15.091193115234375,-0.2967100143432617,11.218749046325684,1.384247899055481
1713800436030915600,15.10891552734375,0.8458628058433533,9.919445991516113,0.0975075215101242
1713800436048637700,15.1266376953125,2.1439690589904785,8.83669376373291,-0.5593222975730896
1713800436066359800,15.14435986328125,0.882951557636261,6.524031162261963,-1.633699655532837
1713800436084082000,15.16208203125,-0.6221339106559753,4.609174728393555,-2.3090739250183105
1713800436101804500,15.179804443359375,-0.07417750358581543,3.7525441646575928,-2.3497519493103027
1713800436119521300,15.197521240234375,0.19561325013637543,3.6442689895629883,-1.6037893295288086
1713800436137247200,15.215247314453125,0.5252245664596558,3.5090744495391846,-0.3332005441188812
1713800436154972200,15.23297216796875,-0.06041877344250679,3.257229804992676,0.97926265001297
1713800436172689000,15.25068896484375,-0.36729827523231506,3.090928554534912,1.664208173751831
1713800436190414800,15.268414794921876,-1.9208383560180664,3.404986619949341,1.5978072881698608
1713800436208136400,15.286136474609375,-3.1591241359710693,4.000799655914307,1.2711870670318604
1713800436225860600,15.303860595703124,-4.587639331817627,4.122833251953125,0.7800601720809937
1713800436243582000,15.32158203125,-6.334399700164795,6.279364585876465,0.16151553392410278
1713800436261303800,15.3393037109375,-7.372884750366211,9.108877182006836,0.33080771565437317
1713800436279021600,15.357021484375,-9.239286422729492,12.747164726257324,0.21415762603282928
1713800436296748000,15.374748046875,-10.134202003479004,17.414962768554688,-4.46979284286499
1713800436314469600,15.3924697265625,-8.426324844360352,18.02273941040039,-1.5720844268798828
1713800436332193500,15.410193603515625,-9.248259544372559,12.391830444335938,-0.09152546525001526
1713800436349915100,15.4279150390625,-9.920642852783203,5.136792182922363,-1.0217353105545044
1713800436367637800,15.4456376953125,-9.594022750854492,6.831508636474609,-1.5846468210220337
1713800436385359600,15.463359619140626,-6.276373863220215,11.320444107055664,-1.0235298871994019
1713800436403081200,15.481081298828125,-0.4372883439064026,14.210375785827637,2.6087749004364014
1713800436420799200,15.49879931640625,1.9627127647399902,15.099906921386719,6.7178497314453125
1713800436438525700,15.516525634765625,-4.579264163970947,9.349954605102539,3.5156545639038086
1713800436456247300,15.534247314453125,-3.208176851272583,4.496711730957031,0.24586252868175507
1713800436473969400,15.551969482421875,-0.35473597049713135,7.492526054382324,-0.4336991012096405
1713800436491688000,15.56968798828125,2.0961127281188965,11.886944770812988,-3.221935749053955
1713800436509401900,15.58740185546875,3.1100711822509766,13.313067436218262,-4.253840446472168
1713800436527138800,15.605138916015624,0.4911268353462219,10.431509971618652,-3.9876389503479004
1713800436544859100,15.622859130859375,-1.2831511497497559,7.731209754943848,-2.3808584213256836
1713800436562581800,15.640581787109374,0.11186445504426956,5.912664890289307,-0.5569294691085815
1713800436580302600,15.658302490234375,-0.5455635786056519,5.589633464813232,1.012762188911438
1713800436598027300,15.67602734375,-1.3280165195465088,6.710072994232178,1.3668999671936035
1713800436615747800,15.693747802734375,-1.4865410327911377,7.4500532150268555,0.2554338276386261
1713800436633470500,15.711470458984374,-1.334596872329712,8.520243644714355,-0.9104689955711365
1713800436651192600,15.729192626953125,-1.5206388235092163,9.119047164916992,-0.9110672473907471
1713800436668910600,15.74691064453125,-1.730010747909546,8.279764175415039,-1.0612168312072754
1713800436686637000,15.764636962890625,-0.047258246690034866,7.289734363555908,-1.3334003686904907
1713800436704359700,15.782359619140625,1.7599210739135742,7.249056339263916,-1.4177473783493042
1713800436722081500,15.80008154296875,1.8502501249313354,7.8388872146606445,-1.2681959867477417
1713800436739804200,15.81780419921875,1.0683952569961548,9.318249702453613,-1.1186445951461792
1713800436757526500,15.835526611328126,-0.028115665540099144,11.554342269897461,-0.8123632669448853
1713800436775245800,15.853245849609374,-0.8045865893363953,12.31525993347168,-0.7208378314971924
1713800436792965000,15.870965087890625,-1.872383713722229,11.959327697753906,-0.6993024349212646
1713800436810689800,15.888689697265624,-2.6362924575805664,11.754142761230469,-2.097309112548828
1713800436828414500,15.90641455078125,-0.646660327911377,11.286944389343262,-4.322634220123291
1713800436846137000,15.92413720703125,-0.0526420995593071,11.998808860778809,-5.286343574523926
1713800436863854300,15.941854248046875,-2.531008243560791,11.639885902404785,-3.814159393310547
1713800436881580500,15.95958056640625,-2.2707886695861816,11.93898868560791,-3.015554666519165
1713800436899304400,15.977304443359374,-0.6801598072052002,14.526227951049805,-3.751347780227661
1713800436917025500,15.995025634765625,-1.0528420209884644,13.500903129577637,-3.6783666610717773
1713800436934748000,16.012747802734374,1.1377872228622437,11.951550483703613,-1.6534404754638672
1713800436952461000,16.0304609375,2.7601208686828613,11.716456413269043,-0.7280163168907166
1713800436970189800,16.04818994140625,4.8675994873046875,13.208979606628418,-0.6364908218383789
1713800436987914500,16.06591455078125,7.128218650817871,16.25384521484375,-0.6083751320838928
1713800437005637400,16.083637451171874,-1.2496516704559326,17.399410247802734,0.4372883439064026
1713800437023359200,16.101359130859375,-4.814957141876221,15.132210731506348,1.7473586797714233
1713800437041080800,16.119080810546876,-2.376072883605957,12.935599327087402,3.5060834884643555
1713800437058803200,16.13680322265625,-3.067598581314087,11.167303085327148,3.4372897148132324
1713800437076525600,16.154525634765626,-0.0729810893535614,9.68494987487793,2.9389843940734863
1713800437094246700,16.17224658203125,1.277767300605774,7.380661487579346,1.937588095664978
1713800437111970800,16.189970703125,2.7110681533813477,7.432705402374268,0.7734799385070801
1713800437129687600,16.2076875,2.496910333633423,6.211169242858887,-1.0612168312072754
1713800437147414500,16.22541455078125,1.594218134880066,5.37906551361084,-2.045863389968872
1713800437165132000,16.243132080078126,0.6693921089172363,4.591826438903809,-2.186441659927368
1713800437182858800,16.260858642578125,-0.18424734473228455,3.4749767780303955,-2.2600209712982178
1713800437200581400,16.278581298828126,-0.9080761671066284,3.5198421478271484,-0.8859425783157349
1713800437218303200,16.29630322265625,-0.836291491985321,2.843271493911743,0.534795880317688
1713800437236025300,16.314025390625,-1.950150489807129,2.465803623199463,1.6917256116867065
1713800437253747500,16.33174755859375,-4.689334392547607,2.249253273010254,2.5944180488586426
1713800437271470000,16.349469970703126,-7.045666217803955,2.2582263946533203,1.592423439025879
1713800437289192000,16.36719189453125,-8.255836486816406,5.505885124206543,0.25363919138908386
1713800437306914600,16.38491455078125,-6.722036838531494,8.940183639526367,-0.5910272002220154
1713800437324635600,16.4026357421875,-7.564310550689697,11.602198600769043,-0.6023930907249451
1713800437342359800,16.42035986328125,-9.708877563476562,17.148761749267578,-1.5625132322311401
1713800437360081000,16.438080810546875,-8.372486114501953,19.66840362548828,-0.22911277413368225
1713800437377803000,16.455802978515624,-11.660822868347168,12.354741096496582,1.8251254558563232
1713800437395524900,16.47352490234375,-13.619348526000977,7.138388156890869,0.8231309652328491
1713800437413246200,16.49124609375,-6.157928943634033,8.96231746673584,0.45284169912338257
1713800437430971000,16.508970947265624,-1.6277176141738892,13.14975643157959,0.3529413342475891
1713800437448687600,16.5266875,1.3549357652664185,16.43988800048828,4.540380954742432
1713800437466409200,16.5444091796875,-2.8211379051208496,9.434301376342773,3.76570463180542
1713800437484136000,16.562135986328126,-1.1473584175109863,3.7878382205963135,1.1880364418029785
1713800437501858300,16.5798583984375,-2.2498514652252197,7.992027759552002,-1.031306505203247
1713800437519580700,16.59758056640625,1.3106685876846313,11.73141098022461,-3.751945972442627
1713800437537302800,16.615302734375,2.1613171100616455,13.954343795776367,-4.1347975730896
1713800437555023600,16.633023681640626,-0.372682124376297,11.576476097106934,-3.524029493331909
1713800437572748500,16.65074853515625,-1.9980069398880005,8.439485549926758,-2.2025933265686035
1713800437590474200,16.66847412109375,-0.4582255482673645,6.940980434417725,-0.9074779748916626
1713800437608191500,16.68619140625,0.5868397355079651,5.411368370056152,0.07537391036748886
1713800437625897700,16.703897705078123,-0.7316055297851562,5.8959150314331055,1.0265209674835205
1713800437643636500,16.721636474609376,-0.7441678643226624,6.905686378479004,0.5982056856155396
1713800437661358300,16.7393583984375,0.5808576941490173,6.923034191131592,-0.8961120843887329
1713800437679080400,16.75708056640625,-2.359323024749756,7.3304123878479,-1.0666006803512573
1713800437696802600,16.774802490234375,-1.3405789136886597,8.799007415771484,-0.4331009089946747
1713800437714524400,16.7925244140625,-0.6861419081687927,9.357730865478516,0.5682953596115112
1713800437732247300,16.810247314453125,-0.6699903607368469,8.781659126281738,-0.12382857501506805
1713800437749970400,16.827970458984375,0.40319061279296875,8.14516830444336,-0.42293140292167664
1713800437767687000,16.84568701171875,-0.049651071429252625,7.9866437911987305,-0.3451646566390991
1713800437785413600,16.86341357421875,-1.1784651279449463,8.526225090026855,-0.5330012440681458
1713800437803136300,16.88113623046875,-1.0707881450653076,9.271589279174805,-1.337587833404541
1713800437820857600,16.898857666015626,0.44327038526535034,10.493125915527344,-2.2085752487182617
1713800437838575400,16.916575439453126,-0.12741780281066895,12.421740531921387,-2.5531418323516846
1713800437856301300,16.93430126953125,-1.0504491329193115,12.506087303161621,-2.9593234062194824
1713800437874023200,16.952023193359373,-0.6263213157653809,12.784253120422363,-2.913261651992798
1713800437891749600,16.96974951171875,-2.578864574432373,12.601800918579102,-2.0482561588287354
1713800437909468700,16.98746875,-2.9904301166534424,11.531012535095215,-3.087339401245117
1713800437927190300,17.005190185546876,-0.3206382393836975,15.425331115722656,-4.439284324645996
1713800437944912100,17.022912109375,0.17228323221206665,13.689936637878418,-5.368896007537842
1713800437962638800,17.040638916015624,2.812164783477783,11.447263717651367,-5.302495002746582
1713800437980358000,17.05835791015625,2.682952404022217,11.930015563964844,-3.404388427734375
1713800437998080000,17.076080078125,3.139981508255005,12.596416473388672,-1.5451651811599731
1713800438015802600,17.093802734375,2.7290141582489014,15.072988510131836,-1.0336993932724
1713800438033524500,17.1115244140625,-1.4656038284301758,15.729219436645508,-0.8063812255859375
1713800438051245600,17.12924560546875,-2.530410051345825,14.554344177246094,1.150349497795105
1713800438068966000,17.1469658203125,1.444068431854248,12.863216400146484,2.943171739578247
1713800438086687000,17.16468701171875,-0.9529415965080261,12.351152420043945,2.593221426010132
1713800438104412200,17.182412109375,-0.7471588850021362,10.487143516540527,2.1678972244262695
1713800438122136600,17.200136474609376,0.617946445941925,8.321639060974121,1.186241865158081
1713800438139852800,17.217852783203124,1.9160526990890503,8.94975471496582,0.8039883971214294
1713800438157580300,17.235580322265626,0.9332008361816406,7.536793231964111,-0.7405785918235779
1713800438175301600,17.253301513671875,0.8446664214134216,6.1603217124938965,-1.5104693174362183
1713800438193024500,17.2710244140625,1.1676974296569824,4.685744762420654,-1.444068431854248
1713800438210746400,17.288746337890625,1.5272190570831299,3.916452407836914,-0.5694918036460876
1713800438228467700,17.3064677734375,1.378864049911499,3.6089746952056885,1.0414760112762451
1713800438246191600,17.324191650390624,0.4498506486415863,3.683152198791504,2.609971284866333
1713800438263912700,17.34191259765625,-1.7647067308425903,2.7523441314697266,3.31465744972229
1713800438281635800,17.3596357421875,-3.360121250152588,2.2995026111602783,2.8701908588409424
1713800438299357700,17.377357666015627,-5.000999450683594,3.352942705154419,1.7497515678405762
1713800438317079300,17.395079345703124,-4.955535888671875,7.362117290496826,1.583450436592102
1713800438334802000,17.412802001953125,-6.080760478973389,9.80100154876709,0.3966103494167328
1713800438352524300,17.430524169921874,-11.437093734741211,11.907881736755371,-2.953939437866211
1713800438370245400,17.448245361328127,-11.317452430725098,12.656237602233887,-4.731806755065918
1713800438387969300,17.46596923828125,-8.036294937133789,13.11685562133789,-2.043470621109009
1713800438405685800,17.483685791015624,-8.37428092956543,9.693922996520996,-1.0630114078521729
1713800438423412700,17.501412841796874,-10.264012336730957,8.658429145812988,-0.32721850275993347
1713800438441130800,17.519130859375,-9.587442398071289,13.791033744812012,0.3086741268634796
1713800438458852900,17.536852783203123,-6.668198585510254,19.33041763305664,3.6735808849334717
1713800438476579300,17.554579345703125,-6.450451850891113,15.0215425491333,6.788437843322754
1713800438494301400,17.572301513671874,-4.5684967041015625,1.9280169010162354,6.79741096496582
1713800438512019200,17.590019287109374,-1.40279221534729,-0.9128618240356445,4.624129772186279
1713800438529744400,17.607744384765624,-4.46979284286499,9.671789169311523,-4.5206403732299805
1713800438547469300,17.62546923828125,3.680161237716675,13.202399253845215,-6.935596466064453
1713800438565190000,17.64318994140625,2.1373889446258545,15.836297988891602,-2.1571295261383057
1713800438582912800,17.660912841796875,-2.974278450012207,13.923834800720215,-1.939382791519165
1713800438600637400,17.678637451171873,-3.246462106704712,9.227322578430176,-0.7022934556007385
1713800438618354000,17.69635400390625,-1.0307083129882812,6.752545356750488,0.8015955686569214
1713800438636078600,17.71407861328125,0.8404789566993713,5.08355188369751,1.1593226194381714
1713800438653801700,17.7318017578125,0.44805604219436646,4.730011940002441,1.633101463317871
1713800438671523000,17.749523193359376,-0.8865407705307007,6.306283950805664,0.38225340843200684
1713800438689244400,17.767244384765625,-2.5878376960754395,7.449455261230469,-1.28255295753479
1713800438706968800,17.78496875,-1.8424733877182007,7.904689788818359,-1.7306089401245117
1713800438724685800,17.802685791015627,-0.97148597240448,7.613961696624756,-1.4105689525604248
1713800438742406700,17.82040673828125,-0.9780662655830383,7.375875949859619,-0.9002995491027832
1713800438760134400,17.838134521484374,-1.7431713342666626,7.9244303703308105,-1.4913266897201538
1713800438777856300,17.855856201171875,-1.8664016723632812,8.316255569458008,-1.7156537771224976
1713800438795579400,17.873579345703124,0.39601215720176697,8.426324844360352,-1.0761719942092896
1713800438813296000,17.891296142578124,1.8717855215072632,8.11824893951416,-0.5952146053314209
1713800438831023600,17.909023681640626,1.1730812788009644,8.93838882446289,0.4175475537776947
1713800438848745500,17.926745361328123,0.5186443328857422,10.922636985778809,1.2460623979568481
1713800438866467800,17.9444677734375,-0.243469700217247,12.339786529541016,1.2335001230239868
1713800438884189700,17.962189697265625,-0.7501499056816101,12.317054748535156,0.06161518394947052
1713800438901911300,17.979911376953126,-0.9523434042930603,11.530414581298828,-2.4257240295410156
1713800438919636200,17.99763623046875,-2.6368906497955322,11.32522964477539,-5.127220630645752
1713800438937357000,18.015357177734376,-1.9866410493850708,12.926626205444336,-7.071987152099609
1713800438955078700,18.03307861328125,0.07058826833963394,15.470196723937988,-6.092126369476318
1713800438972801000,18.050801025390626,-0.1824527233839035,12.632308959960938,-4.680361270904541
1713800438990523400,18.0685234375,3.8949170112609863,11.652447700500488,-4.0456647872924805
1713800439008244500,18.086244384765624,2.991626501083374,13.25264835357666,-1.4207384586334229
1713800439025966600,18.103966552734374,3.2315070629119873,15.573686599731445,1.6845471858978271
1713800439043687400,18.1216875,4.996213912963867,17.96471405029297,3.1920254230499268
1713800439061412000,18.139412109375,-0.31345975399017334,17.473587036132812,2.967100143432617
1713800439079135000,18.157135009765625,-4.7126641273498535,15.469598770141602,2.7553353309631348
1713800439096856600,18.174856689453126,-5.247459888458252,13.61037540435791,2.6350958347320557
1713800439114582000,18.19258203125,-4.755136966705322,11.81336498260498,2.0440688133239746
1713800439132297700,18.210297607421875,2.03629207611084,8.920442581176758,0.3798605799674988
1713800439150023700,18.228023681640625,5.19541597366333,8.748159408569336,0.6143572330474854
1713800439167745500,18.24574560546875,2.9826533794403076,6.893123626708984,-0.7423732280731201
1713800439185463000,18.263463134765626,-0.10468599200248718,5.4071807861328125,-1.5080764293670654
1713800439203190000,18.28118994140625,-0.28115665912628174,4.098905086517334,-1.6109678745269775
1713800439220912400,18.298912353515625,-0.9403793215751648,2.258824586868286,-1.40279221534729
1713800439238634500,18.316634521484374,0.02871387079358101,1.7168502807617188,-0.2715853750705719
1713800439256356600,18.334356689453124,-0.1423729509115219,1.4177473783493042,1.0767701864242554
1713800439274079000,18.352078857421876,-1.1204391717910767,0.8470591902732849,1.1940184831619263
1713800439291801600,18.369801513671874,-3.0933215618133545,0.3601198196411133,1.089930772781372
1713800439309523000,18.38752294921875,-4.460819721221924,1.536790370941162,0.9445667266845703
1713800439327244500,18.40524462890625,-5.385047435760498,4.392025947570801,-0.25004997849464417
1713800439344969000,18.422968994140625,-5.830710411071777,7.4464640617370605,-0.8015955686569214
1713800439362685700,18.440685791015625,-7.346563816070557,9.836894035339355,-1.953141450881958
1713800439380412200,18.458412109375,-10.841879844665527,19.013368606567383,-6.594619274139404
1713800439398134800,18.476134765625,-9.484550476074219,22.4554443359375,-4.277768611907959
1713800439415857000,18.49385693359375,-8.155936241149902,12.867403984069824,-0.1746760457754135
1713800439433579500,18.51157958984375,-12.720843315124512,5.422136306762695,-0.27038896083831787
1713800439451301000,18.529301025390627,-12.451650619506836,9.18724250793457,-0.3403790295124054
1713800439469022000,18.54702197265625,-6.480959892272949,18.32543182373047,-0.2189432680606842
1713800439486741000,18.564740966796876,2.9389843940734863,18.821943283081055,4.182055950164795
1713800439504467200,18.58246728515625,2.7224340438842773,7.746763229370117,8.2157564163208
1713800439522191400,18.60019140625,-2.964108943939209,-1.2975081205368042,6.994220733642578
1713800439539912700,18.61791259765625,-3.7704901695251465,0.9134600162506104,4.402195453643799
1713800439557635000,18.635635009765625,-4.302893161773682,12.795021057128906,-2.4783661365509033
1713800439575356400,18.6533564453125,2.1672990322113037,16.78864097595215,-2.4993033409118652
1713800439593080000,18.671080078125,3.4923245906829834,15.989439010620117,-1.0372886657714844
1713800439610801400,18.688801513671876,-3.7256247997283936,10.265807151794434,-2.950350284576416
1713800439628523800,18.706523681640626,-3.4193434715270996,6.930212497711182,-3.8356947898864746
1713800439646244600,18.72424462890625,-1.2035897970199585,5.796612739562988,-2.163111686706543
1713800439663969300,18.74196923828125,1.7473586797714233,5.330012321472168,-0.714257538318634
1713800439681685500,18.759685546875,-0.21355941891670227,5.414957523345947,-0.17288143932819366
1713800439699413000,18.7774130859375,-2.423929452896118,5.789434432983398,-0.5916253924369812
1713800439717135000,18.795135009765627,-0.11425728350877762,7.697112083435059,-1.170688509941101
1713800439734857200,18.812857177734376,-0.389431893825531,8.103293418884277,-1.4871392250061035
1713800439752579300,18.830579345703125,-0.8207381963729858,8.042277336120605,-0.7028916478157043
1713800439770301700,18.8483017578125,-0.07058826833963394,8.02193832397461,0.3086741268634796
1713800439788019700,18.866019775390626,-0.26979073882102966,6.985845565795898,-0.23808585107326508
1713800439805746200,18.88374609375,0.3314059376716614,7.292725086212158,-0.36729827523231506
1713800439823468300,18.90146826171875,1.231107234954834,8.50708293914795,0.10767702013254166
1713800439841191000,18.91919091796875,0.17647066712379456,10.063613891601562,0.7040880918502808
1713800439858908700,18.93690869140625,-1.7282161712646484,10.318449020385742,0.08673982322216034
1713800439876635000,18.954634765625,-2.3234307765960693,11.324631690979004,-1.4757733345031738
1713800439894358800,18.97235888671875,-1.932802438735962,13.075579643249512,-2.7732813358306885
1713800439912080400,18.990080322265626,-1.1186445951461792,13.686945915222168,-3.978665828704834
1713800439929790500,19.00779052734375,-3.1920254230499268,13.899907112121582,-3.8913278579711914
1713800439947523300,19.0255234375,-4.3070807456970215,13.059428215026855,-4.1383867263793945
1713800439965247000,19.0432470703125,0.13220344483852386,15.780665397644043,-4.273581027984619
1713800439982970400,19.060970458984375,1.4937195777893066,14.183456420898438,-3.9906299114227295
1713800440000686800,19.078686767578127,1.1808580160140991,11.521441459655762,-3.418745279312134
1713800440018413300,19.096413330078125,3.236292600631714,12.101101875305176,-0.39960137009620667
1713800440036136200,19.11413623046875,8.15234661102295,16.063615798950195,-0.5736792087554932
1713800440053858600,19.131858642578123,2.4741785526275635,18.976280212402344,-1.2873386144638062
1713800440071581000,19.149580810546876,-6.2291154861450195,17.875581741333008,0.03469592705368996
1713800440089302500,19.167302490234373,-2.107478618621826,14.976078987121582,3.205185890197754
1713800440107025200,19.185025146484374,8.02074146270752,12.66042423248291,4.840082168579102
1713800440124747500,19.20274755859375,-2.833700180053711,12.483953475952148,5.1768717765808105
1713800440142463700,19.220463623046875,-2.252244234085083,9.630513191223145,3.250051259994507
1713800440160189400,19.238189453125,1.1922239065170288,7.8454670906066895,1.9334007501602173
1713800440177914400,19.255914306640626,-0.5042873620986938,6.017949104309082,-0.054436713457107544
1713800440195637000,19.273636962890624,0.7112665176391602,4.214358806610107,-1.8903298377990723
1713800440213355500,19.29135546875,1.609771490097046,2.225325107574463,-3.0275187492370605
1713800440231084800,19.309084716796875,1.017547845840454,0.3086741268634796,-2.795415163040161
1713800440248802300,19.32680224609375,1.6319050788879395,0.8309076428413391,-0.997208833694458
1713800440266527200,19.34452734375,1.6175481081008911,1.1222338676452637,0.6675975322723389
1713800440284247300,19.362247314453125,-0.016749758273363113,0.5485545992851257,1.9782661199569702
1713800440301971500,19.379971435546874,-3.638286828994751,0.6759724020957947,3.119642496109009
1713800440319688000,19.39768798828125,-7.509275436401367,2.5603201389312744,2.0195422172546387
1713800440337415000,19.415414794921876,-9.122037887573242,7.343572616577148,0.08853443711996078
1713800440355137500,19.433137451171874,-7.3160552978515625,12.07777214050293,-2.245664119720459
1713800440372859400,19.450859375,-5.44008207321167,15.66102409362793,-1.1934202909469604
1713800440390581800,19.468581787109375,-10.141979217529297,15.607185363769531,1.0809576511383057
1713800440408304000,19.48630419921875,-13.683356285095215,12.05803108215332,-0.9643075466156006
1713800440426026800,19.50402685546875,-8.663214683532715,8.85224723815918,-0.21176479756832123
1713800440443748600,19.52174853515625,-6.140581130981445,8.929415702819824,2.6901309490203857
1713800440461471200,19.53947119140625,-8.094919204711914,20.57229232788086,1.0187442302703857
1713800440479193000,19.557193115234377,-3.527618885040283,24.165714263916016,2.8462624549865723
1713800440496916000,19.574916015625,0.062213387340307236,8.383254051208496,5.347360610961914
1713800440514637000,19.592636962890627,0.9828519225120544,-3.418745279312134,5.0943193435668945
1713800440532361200,19.610361328125,-1.6821542978286743,1.3668999671936035,2.6315066814422607
1713800440550082600,19.62808251953125,-2.026122570037842,13.931612014770508,-3.326023578643799
1713800440567805000,19.645804931640626,1.7407784461975098,18.040088653564453,-1.7228323221206665
1713800440585526800,19.66352685546875,1.7222341299057007,16.511672973632812,-1.9489539861679077
1713800440603248000,19.681248046875,-1.8023936748504639,9.857831001281738,-2.15653133392334
1713800440620971800,19.6989716796875,-1.3459627628326416,6.183053493499756,-0.7657032608985901
1713800440638690800,19.71669091796875,-0.24287149310112,4.884947299957275,-1.4997016191482544
1713800440656416000,19.734416015625,1.0223335027694702,5.593821048736572,-2.14935302734375
1713800440674138600,19.752138671875,0.3936193287372589,5.449055194854736,-2.3539392948150635
1713800440691861000,19.769861083984374,-2.197807550430298,5.678168296813965,-1.1868400573730469
1713800440709583400,19.787583251953127,-1.7228323221206665,6.3702921867370605,-0.5102694034576416
1713800440727305500,19.805305419921876,-0.906281590461731,6.983452796936035,-0.9475577473640442
1713800440745027600,19.823027587890625,-0.21774685382843018,7.9728851318359375,-0.040677983313798904
1713800440762745300,19.840745361328125,0.2967100143432617,8.247461318969727,0.2638086974620819
1713800440780472800,19.858472900390623,-1.217348575592041,7.869993686676025,-0.45224347710609436
1713800440798194200,19.876194091796876,-1.1114661693572998,8.516654014587402,-0.6795616149902344
1713800440815917000,19.8939169921875,0.36191442608833313,9.356534957885742,-0.7172485589981079
1713800440833634300,19.91163427734375,-1.0977073907852173,10.347163200378418,-0.21954147517681122
1713800440851360800,19.92936083984375,-2.5908286571502686,11.529815673828125,0.29730820655822754
1713800440869084400,19.94708447265625,-2.937189817428589,11.906685829162598,-0.15254244208335876
1713800440886806300,19.96480615234375,-2.6159534454345703,11.849257469177246,-2.4263222217559814
1713800440904527400,19.98252734375,-1.6552350521087646,13.28674602508545,-4.636094093322754
1713800440922250800,20.000250732421875,-2.6554348468780518,14.712868690490723,-4.7264227867126465
1713800440939974000,20.017973876953125,-2.1894326210021973,14.134403228759766,-4.5338006019592285
1713800440957691400,20.03569140625,-0.38225340843200684,14.989239692687988,-4.606781959533691
1713800440975417600,20.05341748046875,1.017547845840454,14.345569610595703,-4.18863582611084
1713800440993140500,20.071140380859376,5.065007209777832,11.944971084594727,-4.652843475341797
1713800441010856200,20.088856201171875,5.434698581695557,11.605788230895996,-2.45204496383667
1713800441028585000,20.1065849609375,4.404588222503662,14.257035255432129,1.31365966796875
1713800441046306600,20.124306640625,3.7639100551605225,17.573488235473633,2.434697151184082
1713800441064029700,20.14202978515625,-3.675973892211914,18.58325958251953,2.184048891067505
1713800441081756700,20.159756591796874,-7.035496711730957,15.630516052246094,3.2135608196258545
1713800441099474000,20.177473876953126,-4.329214572906494,12.079566955566406,3.0107691287994385
1713800441117196000,20.195196044921875,7.681559085845947,9.014959335327148,2.9252257347106934
1713800441134914300,20.212914306640624,0.21774685382843018,9.508479118347168,2.8594231605529785
1713800441152640800,20.230640869140625,4.240081787109375,9.438488960266113,1.4063814878463745
1713800441170363100,20.248363037109375,2.600399971008301,7.463213920593262,-0.4001995921134949
1713800441188085500,20.26608544921875,-0.12861421704292297,5.062614440917969,-1.389033555984497
1713800441205803000,20.283802978515624,-1.2634103298187256,3.992424488067627,-1.4739787578582764
1713800441223528400,20.301528564453125,1.5038890838623047,2.2582263946533203,-1.1395817995071411
1713800441241252400,20.31925244140625,1.378864049911499,1.1186445951461792,-0.8123632669448853
1713800441258972400,20.336972412109375,0.5228317379951477,1.215553879737854,0.040677983313798904
1713800441276692700,20.354692626953124,-0.050847481936216354,1.2687941789627075,0.6095715761184692
1713800441296632000,20.374632080078126,-3.1752755641937256,0.6436693072319031,1.490728497505188
1713800441314358000,20.39235791015625,-4.43031120300293,1.5391831398010254,1.0265209674835205
1713800441332070400,20.4100703125,-7.502097129821777,5.73978328704834,-0.008374879136681557
1713800441349804000,20.427803955078126,-10.345368385314941,12.056835174560547,-0.3284149169921875
1713800441367525600,20.445525634765627,-13.83948802947998,15.595221519470215,-2.042274236679077
1713800441385248000,20.463248046875,-10.650453567504883,18.382261276245117,-0.4468596279621124
1713800441402970400,20.480970458984373,-6.038886070251465,15.559926986694336,2.486142635345459
1713800441420693800,20.49869384765625,-9.732806205749512,8.23011302947998,0.6741777658462524
1713800441438415000,20.5164150390625,-12.567702293395996,6.55693244934082,-1.0552347898483276
1713800441456137200,20.53413720703125,-8.334799766540527,14.965311050415039,-0.9535398483276367
1713800441473859300,20.551859375,-0.8015955686569214,20.37488555908203,1.5224334001541138
1713800441491583000,20.5695830078125,2.768495798110962,15.266806602478027,7.09292459487915
1713800441509304000,20.587303955078124,-2.324627161026001,2.3090739250183105,7.045666217803955
1713800441527026000,20.60502587890625,-5.449055194854736,2.3515465259552,3.1351959705352783
1713800441544749000,20.6227490234375,-4.969294548034668,11.4652099609375,-3.8117663860321045
1713800441562467600,20.640467529296874,6.0502519607543945,13.51705551147461,-5.750551223754883
1713800441580193300,20.658193359375,5.763113498687744,15.573686599731445,-5.0602216720581055
1713800441597911000,20.6759111328125,-1.296311616897583,10.470992088317871,-4.487739086151123
1713800441615638000,20.693637939453126,-1.8646070957183838,5.681159019470215,-2.3048863410949707
1713800441633361200,20.711361083984375,-0.4570291340351105,4.226921081542969,0.6478567123413086
1713800441651082500,20.72908251953125,0.2638086974620819,4.097110748291016,1.6013965606689453
1713800441668804900,20.746804931640625,-1.26699960231781,6.248258113861084,1.9244276285171509
1713800441686527000,20.76452685546875,-2.1822543144226074,6.777071952819824,0.07597211748361588
1713800441704250400,20.78225048828125,-0.3200400173664093,7.265207767486572,-1.5050854682922363
1713800441721971700,20.7999716796875,-2.8660032749176025,8.210372924804688,-1.6791633367538452
1713800441739694000,20.817694091796874,-0.4342973232269287,7.529016494750977,-1.6528422832489014
1713800441757416200,20.835416259765626,0.6933203339576721,7.192226886749268,-1.353141188621521
1713800441775139600,20.8531396484375,1.4943177700042725,8.230711936950684,-1.1060823202133179
1713800441792860700,20.870860595703125,0.6897311210632324,9.056833267211914,-1.1772687435150146
1713800441810583000,20.8885830078125,-0.615553617477417,9.133403778076172,-0.511465847492218
1713800441828305400,20.906305419921875,-1.461416482925415,9.346963882446289,1.51166570186615
1713800441846028000,20.924028076171876,-3.625126361846924,10.358529090881348,2.7978079319000244
1713800441863750400,20.94175048828125,-4.116851329803467,11.528020858764648,-0.13459627330303192
1713800441881468200,20.95946826171875,-1.2370892763137817,12.095718383789062,-4.371686935424805
1713800441899189800,20.977189697265626,0.9696913957595825,13.117453575134277,-6.3116679191589355
1713800441916917800,20.994917724609376,-1.7330018281936646,12.908082008361816,-5.153541564941406
1713800441934639000,21.01263916015625,-1.7617156505584717,13.061222076416016,-4.210171222686768
1713800441952360700,21.030360595703126,0.23270200192928314,16.346567153930664,-3.5748770236968994
1713800441970084000,21.048083984375,1.8418751955032349,14.703895568847656,-3.710669755935669
1713800441987806500,21.065806396484376,4.596612453460693,11.968300819396973,-2.6039891242980957
1713800442005528800,21.08352880859375,5.045864582061768,12.145369529724121,0.9248259663581848
1713800442023250700,21.101250732421875,4.3447675704956055,15.460625648498535,2.3461625576019287
1713800442040972800,21.118972900390624,-2.170290231704712,18.949359893798828,2.0069799423217773
1713800442058696200,21.1366962890625,-3.2333016395568848,17.65364646911621,1.4901303052902222
1713800442076417500,21.15441748046875,-2.517249345779419,15.278172492980957,2.256431818008423
1713800442094139600,21.1721396484375,3.9661035537719727,12.861421585083008,2.5501506328582764
1713800442111862000,21.189862060546876,-0.6939185857772827,11.522637367248535,2.475973129272461
1713800442129585400,21.20758544921875,0.97148597240448,9.90568733215332,1.7670994997024536
1713800442147306500,21.225306396484374,1.317248821258545,7.752745151519775,0.5521438121795654
1713800442165028400,21.2430283203125,0.48574298620224,4.7336015701293945,-0.8398807644844055
1713800442182751500,21.26075146484375,0.3248256742954254,2.7565317153930664,-1.576271891593933
1713800442200469800,21.2784697265625,0.7513462901115417,2.406581401824951,-1.2083754539489746
1713800442218195500,21.296195556640626,1.085145115852356,1.4249259233474731,-0.6400800347328186
1713800442235917600,21.31391748046875,1.8741782903671265,1.3196417093276978,0.6005984544754028
1713800442253640200,21.33164013671875,1.6342978477478027,1.8658034801483154,1.0492527484893799
1713800442271358700,21.349358642578125,0.21774685382843018,1.811964988708496,0.7657032608985901
1713800442289084200,21.367084228515626,-2.650649309158325,1.2939188480377197,0.8656035661697388
1713800442306803200,21.38480322265625,-5.075775146484375,2.270190477371216,0.6281159520149231
1713800442324529400,21.402529296875,-7.186244487762451,6.412764549255371,0.13459627330303192
1713800442342251800,21.420251708984374,-9.727422714233398,12.396615982055664,-0.784247636795044
1713800442359974000,21.437973876953127,-11.121241569519043,17.02912139892578,-4.168895244598389
1713800442377696500,21.455696533203124,-8.880961418151855,18.39961051940918,-1.8921245336532593
1713800442395419000,21.4734189453125,-8.090731620788574,15.337394714355469,0.6209374666213989
1713800442413141800,21.491141845703126,-11.760723114013672,8.697312355041504,0.2153540402650833
1713800442430862800,21.50886279296875,-10.838290214538574,3.631108283996582,-0.13280165195465088
1713800442448585000,21.5265849609375,-9.504291534423828,3.510270833969116,0.6981059908866882
1713800442466307600,21.5443076171875,-9.263215065002441,11.349157333374023,1.5720844268798828
1713800442484030000,21.562030029296874,-1.5176477432250977,14.274383544921875,1.0031908750534058
1713800442501752600,21.579752685546875,6.5282182693481445,18.112470626831055,4.832305431365967
1713800442519469800,21.5974697265625,2.7463622093200684,17.783458709716797,4.95074987411499
1713800442537196300,21.6151962890625,-10.225129127502441,1.9172492027282715,3.672982692718506
1713800442554919700,21.632919677734375,-3.9320058822631836,2.9306094646453857,2.482553482055664
1713800442572636400,21.650636474609374,1.0827522277832031,10.465607643127441,-2.5663022994995117
1713800442590363400,21.66836328125,7.785048484802246,14.872589111328125,-5.1906304359436035
1713800442608085800,21.686085693359374,6.40438985824585,14.30907917022705,-4.6408796310424805
1713800442625809000,21.703808837890627,-4.555335998535156,8.159524917602539,-2.5525436401367188
1713800442643530200,21.7215302734375,-4.8675994873046875,5.0015974044799805,-0.7908278703689575
1713800442661251800,21.739251953125,0.760917603969574,5.358128070831299,0.7746763229370117
1713800442678975200,21.756975341796874,-1.1892328262329102,5.352744102478027,0.5288137793540955
1713800442696692000,21.77469189453125,-1.5744773149490356,5.975476264953613,0.13459627330303192
1713800442714421500,21.79242138671875,-1.8813568353652954,7.153343200683594,-0.49292147159576416
1713800442732141600,21.8101416015625,-1.3513466119766235,7.9591264724731445,-1.3866406679153442
1713800442749864000,21.827864013671874,0.5647061467170715,8.127820014953613,-1.7485551834106445
1713800442767587300,21.84558740234375,1.7838492393493652,7.272386074066162,-1.7641085386276245
1713800442785308400,21.863308349609376,2.0452651977539062,7.228118896484375,-1.532004714012146
1713800442827396600,21.905396728515626,-2.661417007446289,10.105487823486328,-0.20578274130821228
1713800442845120000,21.9231201171875,-3.8297126293182373,9.860223770141602,-0.07537391036748886
1713800442862841000,21.940841064453124,-2.7589244842529297,11.632108688354492,-0.9583254456520081
1713800442880564500,21.958564453125,-1.6031911373138428,12.222537994384766,-3.1250264644622803
1713800442898285800,21.976285888671875,1.7060825824737549,12.058629989624023,-5.279763221740723
1713800442916009000,21.994009033203124,-1.709073543548584,13.058231353759766,-4.198207378387451
1713800442933730600,22.01173046875,-3.4103705883026123,13.144970893859863,-2.7726831436157227
1713800442951453700,22.02945361328125,-0.39062830805778503,15.250655174255371,-3.2614171504974365
1713800442969170000,22.047169921875,1.8352949619293213,16.140186309814453,-3.160320520401001
1713800442986898200,22.064898193359376,1.9262222051620483,14.389837265014648,-1.9316060543060303
1713800443004618800,22.08261865234375,3.1232316493988037,11.748759269714355,0.6005984544754028
1713800443022344700,22.1003447265625,3.534797191619873,12.272787094116211,3.332603693008423
1713800443040058000,22.11805810546875,0.14476576447486877,16.150955200195312,2.586641311645508
1713800443057786000,22.1357861328125,-2.9312076568603516,17.487346649169922,0.12203395366668701
1713800443075509800,22.153509765625,-2.386242389678955,15.248262405395508,0.9858429431915283
1713800443093230800,22.17123095703125,3.7046875953674316,13.152149200439453,2.390429735183716
1713800443110954000,22.1889541015625,-1.0474581718444824,13.031311988830566,2.4987051486968994
1713800443128670700,22.206670654296875,-0.5934200286865234,9.997811317443848,1.576870083808899
1713800443146398700,22.224398681640626,2.4771697521209717,9.286544799804688,1.1180464029312134
1713800443164121000,22.24212109375,1.34476637840271,6.945765972137451,0.2350948303937912
1713800443181842400,22.259842529296876,0.544965386390686,4.3998026847839355,-0.45583271980285645
1713800443199565600,22.277565673828125,0.9595218896865845,3.5234313011169434,-0.6215356588363647
1713800443217286700,22.29528662109375,1.1419745683670044,3.2207393646240234,-1.1072787046432495
1713800443235010300,22.31301025390625,0.9499505758285522,2.2821545600891113,-0.7471588850021362
1713800443252731100,22.330731201171876,0.6610172390937805,1.5990036725997925,0.23270200192928314
1713800443270454800,22.348454833984373,0.3074777126312256,1.5517455339431763,0.5407779216766357
1713800443288175900,22.36617578125,-1.3902299404144287,1.420140266418457,0.6969096064567566
1713800443305899300,22.383899169921875,-4.334598064422607,1.482353687286377,0.30628129839897156
1713800443323620000,22.4016201171875,-6.591628074645996,3.662813186645508,-0.12442677468061447
1713800443341338600,22.419338623046876,-8.213961601257324,7.548757076263428,-0.7399803996086121
1713800443359060500,22.437060546875,-9.889535903930664,12.068201065063477,-0.8404789566993713
1713800443376788200,22.454788330078124,-9.202198028564453,16.875381469726562,-2.03629207611084
1713800443394508300,22.47250830078125,-7.796414375305176,19.852052688598633,0.061016976833343506
1713800443412232400,22.490232421875,-10.220343589782715,13.59781265258789,0.02751746028661728
1713800443429953800,22.507953857421874,-14.203795433044434,5.3353962898254395,-1.677966833114624
1713800443447673900,22.525673828125,-13.971691131591797,6.881159782409668,-2.528017044067383
1713800443465398500,22.5433984375,-6.366703033447266,14.425130844116211,-0.6382854580879211
1713800443483122200,22.5611220703125,1.7850457429885864,17.15833282470703,4.2107696533203125
1713800443500842800,22.5788427734375,2.6500511169433594,11.907283782958984,7.485945701599121
1713800443518566400,22.59656640625,-3.731606960296631,2.3503501415252686,4.384847640991211
1713800443536287700,22.614287841796877,-4.94775915145874,2.661417007446289,2.994617462158203
