time,seconds_elapsed,z,y,x
1713800421153034500,0.231034423828125,0.14984607696533203,0.028296172618865967,-0.015082478523254395
1713800421170757600,0.248757568359375,0.12597179412841797,-0.0006740689277648926,-0.03813493251800537
1713800421188479200,0.266479248046875,0.06258773803710938,0.051761746406555176,-0.0385136604309082
1713800421206202400,0.284202392578125,-0.1106710433959961,-0.00031429529190063477,-0.04701218008995056
1713800421223924000,0.301924072265625,-0.1423778533935547,0.018710434436798096,-0.007043659687042236
1713800421241647600,0.319647705078125,-0.18855667114257812,-0.011687636375427246,0.009501636028289795
1713800421259367000,0.337366943359375,-0.12245845794677734,-0.010296642780303955,0.00009140372276306152
1713800421277091800,0.355091796875,-0.08702659606933594,0.023660004138946533,-0.009290426969528198
1713800421294813400,0.3728134765625,-0.046070098876953125,0.010699152946472168,-0.0062482357025146484
1713800421312536600,0.39053662109375,0.058897972106933594,-0.07196056842803955,0.05709105730056763
1713800421330257200,0.408257080078125,0.027077674865722656,-0.0758092999458313,0.06697645783424377
1713800421347981300,0.425981201171875,-0.023099899291992188,-0.0374186635017395,0.040761470794677734
1713800421365700000,0.4437001953125,-0.02469635009765625,-0.00008893013000488281,-0.03760206699371338
1713800421383426000,0.461426025390625,-0.03167152404785156,0.033046722412109375,-0.07577329874038696
1713800421401147400,0.4791474609375,-0.06380081176757812,0.06678670644760132,-0.07518067955970764
1713800421418866200,0.4968662109375,-0.10465049743652344,0.08426517248153687,-0.02150699496269226
1713800421436575500,0.514575439453125,-0.10738849639892578,0.04328733682632446,0.012476474046707153
1713800421454315800,0.532315673828125,0.011042594909667969,-0.002262115478515625,-0.023737430572509766
1713800421472032500,0.550032470703125,0.07629776000976562,-0.008543431758880615,-0.03466314077377319
1713800421489764000,0.56776416015625,0.08618927001953125,-0.05704528093338013,-0.026489824056625366
1713800421507481900,0.58548193359375,0.026167869567871094,-0.05367708206176758,-0.0032493174076080322
1713800421525201200,0.603201171875,0.014276504516601562,-0.03681689500808716,-0.032025694847106934
1713800421542923800,0.620923828125,-0.05211830139160156,-0.0005841851234436035,-0.005208402872085571
1713800421560655600,0.638655517578125,-0.15964603424072266,-0.009769618511199951,-0.006662726402282715
1713800421578370800,0.656370849609375,-0.11132049560546875,-0.015087723731994629,0.0028004348278045654
1713800421596094000,0.674093994140625,-0.03880119323730469,-0.014566779136657715,0.0024559497833251953
1713800421613800000,0.691800048828125,-0.13104248046875,0.009216606616973877,0.0300942063331604
1713800421631539500,0.70953955078125,-0.10122203826904297,-0.013291776180267334,0.011444419622421265
1713800421649259500,0.727259521484375,-0.051654815673828125,-0.031161248683929443,0.041480809450149536
1713800421666985200,0.744985107421875,0.060225486755371094,-0.02443373203277588,-0.04800349473953247
1713800421684701200,0.762701171875,0.09159564971923828,-0.02578592300415039,-0.029026120901107788
1713800421702425000,0.780425048828125,0.06771087646484375,-0.08239716291427612,-0.028188437223434448
1713800421720148700,0.798148681640625,0.010993003845214844,-0.03872781991958618,0.004928559064865112
1713800421737874400,0.81587451171875,-0.046344757080078125,-0.002939283847808838,-0.013137668371200562
1713800421755594500,0.833594482421875,-0.038372039794921875,0.09218710660934448,-0.001006096601486206
1713800421773317600,0.851317626953125,0.0022678375244140625,0.06185632944107056,-0.039746761322021484
1713800421791039500,0.86903955078125,0.0475921630859375,-0.013118326663970947,-0.015281498432159424
1713800421808764000,0.886763916015625,-0.09249210357666016,-0.04279094934463501,0.01551780104637146
1713800421826482700,0.904482666015625,-0.19615650177001953,-0.050097525119781494,0.04258027672767639
1713800421844207600,0.92220751953125,-0.055110931396484375,-0.012222647666931152,0.012502074241638184
1713800421861923800,0.939923828125,0.17539405822753906,-0.04679900407791138,-0.03831076622009277
1713800421879656000,0.957656005859375,0.21939468383789062,-0.06962394714355469,-0.03345414996147156
1713800421897373400,0.97537353515625,0.03204822540283203,-0.060630083084106445,0.02251368761062622
1713800421915096600,0.9930966796875,-0.09433841705322266,-0.0550384521484375,0.0497126579284668
1713800421932813000,1.01081298828125,-0.08986949920654297,-0.03376317024230957,0.035373151302337646
1713800421950540300,1.028540283203125,-0.09479045867919922,0.004751026630401611,-0.02244904637336731
1713800421968263000,1.046262939453125,-0.09289169311523438,-0.006616413593292236,0.0116557776927948
1713800421985987300,1.0639873046875,-0.15463638305664062,-0.00966411828994751,0.05491626262664795
1713800422003703300,1.081703369140625,-0.0838632583618164,-0.03213387727737427,0.07568708062171936
1713800422021428000,1.099427978515625,0.08757209777832031,-0.11174947023391724,0.10327643156051636
1713800422039155000,1.117155029296875,0.20653915405273438,-0.1159246563911438,0.05242270231246948
1713800422056875800,1.134875732421875,0.1743755340576172,-0.04854971170425415,-0.015131056308746338
1713800422074595800,1.152595947265625,-0.08800315856933594,0.01494508981704712,-0.015439152717590332
1713800422092313000,1.17031298828125,-0.25815296173095703,0.05461019277572632,-0.009808003902435303
1713800422110039800,1.188039794921875,-0.12964820861816406,-0.00998622179031372,-0.012446790933609009
1713800422127766800,1.205766845703125,0.0477294921875,-0.08710265159606934,0.01743575930595398
1713800422145486300,1.223486328125,0.06759262084960938,-0.10787874460220337,-0.041389673948287964
1713800422163209700,1.241209716796875,-0.0063877105712890625,-0.07135701179504395,-0.006202518939971924
1713800422180918500,1.25891845703125,-0.16042613983154297,-0.04157012701034546,0.0037403404712677
1713800422198651400,1.2766513671875,-0.12573814392089844,0.023498952388763428,0.0034086406230926514
1713800422216360700,1.294360595703125,0.011621475219726562,-0.01805633306503296,-0.020535528659820557
1713800422234094000,1.312093994140625,0.07560157775878906,-0.009790003299713135,-0.02191731333732605
1713800422251820300,1.3298203125,-0.11545085906982422,0.020711541175842285,-0.04308426380157471
1713800422269531600,1.34753173828125,-0.1509571075439453,0.0028670430183410645,-0.03327399492263794
1713800422287264000,1.365263916015625,0.04504108428955078,-0.052801430225372314,-0.05757459998130798
1713800422304984600,1.382984619140625,0.16385746002197266,-0.018421292304992676,-0.09586060047149658
1713800422322716000,1.4007158203125,0.050950050354003906,0.008332252502441406,-0.07923117280006409
1713800422340434200,1.41843408203125,-0.0367889404296875,0.015033721923828125,-0.06017583608627319
1713800422358153700,1.43615380859375,-0.1783905029296875,0.05300307273864746,0.008877933025360107
1713800422375877600,1.453877685546875,-0.11388683319091797,0.07903218269348145,-0.06485918164253235
1713800422393584400,1.47158447265625,0.11248016357421875,0.008660733699798584,-0.006240576505661011
1713800422411325000,1.489324951171875,0.24782943725585938,-0.0447765588760376,-0.04969021677970886
1713800422429039400,1.507039306640625,0.05344676971435547,-0.0009673237800598145,0.010125577449798584
1713800422446767400,1.524767333984375,-0.20949649810791016,-0.05287724733352661,0.003594428300857544
1713800422464487200,1.542487060546875,-0.2607536315917969,-0.0022951364517211914,0.01960805058479309
1713800422482213000,1.560213134765625,-0.19938945770263672,0.02216804027557373,0.005517631769180298
1713800422499932700,1.5779326171875,-0.0012350082397460938,-0.023234665393829346,-0.012049347162246704
1713800422517653500,1.595653564453125,0.10418128967285156,-0.07554006576538086,0.004551410675048828
1713800422535377400,1.61337744140625,0.052753448486328125,-0.06492042541503906,-0.057952433824539185
1713800422553100800,1.631100830078125,-0.005887031555175781,0.024621188640594482,-0.03219419717788696
1713800422570810600,1.648810546875,-0.12865734100341797,0.07380974292755127,-0.005352199077606201
1713800422588544800,1.666544677734375,-0.11823177337646484,0.09449487924575806,0.026707202196121216
1713800422606266600,1.6842666015625,-0.053984642028808594,-0.00867682695388794,0.05320557951927185
1713800422623991600,1.701991455078125,-0.004357337951660156,-0.06252551078796387,0.047546565532684326
1713800422641717200,1.71971728515625,0.012209892272949219,-0.06644833087921143,0.028500884771347046
1713800422659439000,1.737439208984375,0.04394817352294922,-0.07721120119094849,-0.002576887607574463
1713800422677151700,1.75515185546875,0.05941581726074219,-0.07362598180770874,-0.06768304109573364
1713800422694883600,1.772883544921875,0.020532608032226562,-0.0351981520652771,-0.08635497093200684
1713800422712600800,1.790600830078125,-0.06721687316894531,-0.035767197608947754,-0.07213088870048523
1713800422730324500,1.808324462890625,-0.05653190612792969,-0.0010170340538024902,0.025433719158172607
1713800422748038100,1.8260380859375,-0.029630661010742188,-0.013943254947662354,0.020510554313659668
1713800422765769000,1.84376904296875,0.05954742431640625,0.0029575228691101074,-0.036286771297454834
1713800422783490000,1.861489990234375,0.03428077697753906,0.0009877681732177734,-0.07330504059791565
1713800422801213700,1.879213623046875,-0.013476371765136719,0.0335116982460022,-0.0851416289806366
1713800422818930000,1.896929931640625,-0.04677772521972656,0.01817256212234497,-0.04717698693275452
1713800422836653800,1.91465380859375,-0.03334617614746094,-0.014530777931213379,0.033481091260910034
1713800422854379300,1.932379150390625,0.09465217590332031,-0.05484342575073242,0.0382726788520813
1713800422872100900,1.950100830078125,0.08276176452636719,-0.062340378761291504,0.08511066436767578
1713800422889825800,1.96782568359375,-0.04404163360595703,-0.07010674476623535,0.013093382120132446
1713800422907542800,1.985542724609375,-0.12807559967041016,0.012735366821289062,-0.042585015296936035
1713800422925273000,2.003273193359375,-0.2444448471069336,0.02593100070953369,-0.05270901322364807
1713800422942993200,2.0209931640625,-0.1727275848388672,0.029376089572906494,-0.023142874240875244
1713800422960716800,2.038716796875,-0.03945350646972656,-0.005837857723236084,0.024609267711639404
1713800422978436900,2.056436767578125,0.14519786834716797,-0.08313137292861938,0.07533903419971466
1713800422996157000,2.074156982421875,0.28350353240966797,-0.11178284883499146,0.04803889989852905
1713800423013882400,2.09188232421875,0.1262197494506836,-0.06554257869720459,-0.002676725387573242
1713800423031603000,2.10960302734375,-0.09632301330566406,0.02734959125518799,-0.020977109670639038
1713800423049326300,2.127326416015625,-0.2540912628173828,0.09443908929824829,-0.03228512406349182
1713800423067047400,2.14504736328125,-0.1822671890258789,0.06811153888702393,-0.03085455298423767
1713800423084770600,2.1627705078125,0.0002040863037109375,0.001295924186706543,0.03757596015930176
1713800423102492200,2.1804921875,0.10435676574707031,-0.062117040157318115,0.01936456561088562
1713800423120216300,2.19821630859375,0.03566741943359375,-0.05838572978973389,0.005376338958740234
1713800423137940700,2.215940673828125,-0.057946205139160156,-0.03801572322845459,-0.009756535291671753
1713800423155652900,2.23365283203125,-0.10349655151367188,-0.03261160850524902,-0.0005092322826385498
1713800423173384000,2.251384033203125,-0.02516460418701172,0.011311888694763184,-0.0059410929679870605
1713800423191104800,2.269104736328125,0.024950027465820312,0.00481724739074707,-0.0395466685295105
1713800423208821500,2.286821533203125,0.03862571716308594,0.004594147205352783,-0.014962702989578247
1713800423226541000,2.304541015625,-0.07853031158447266,-0.0014177560806274414,0.008421987295150757
1713800423244269000,2.32226904296875,-0.18942832946777344,0.01913660764694214,0.003140747547149658
1713800423261995800,2.339995849609375,-0.11093330383300781,-0.002947986125946045,-0.016285955905914307
1713800423279710500,2.35771044921875,0.02305889129638672,-0.027049005031585693,-0.040354907512664795
1713800423297437400,2.3754375,0.11927604675292969,-0.006635904312133789,-0.029960662126541138
1713800423315160600,2.39316064453125,0.06937122344970703,-0.07803159952163696,-0.020429998636245728
1713800423332882000,2.4108818359375,0.0049610137939453125,-0.07780802249908447,0.003540515899658203
1713800423350605600,2.42860546875,-0.10480308532714844,-0.040314316749572754,-0.043294042348861694
1713800423368326700,2.44632666015625,-0.09954166412353516,0.04316377639770508,-0.0525248646736145
1713800423386050000,2.464050048828125,-0.10079765319824219,0.08332890272140503,-0.025995999574661255
1713800423403772200,2.481772216796875,-0.011185646057128906,0.05597400665283203,-0.011571258306503296
1713800423421490700,2.49949072265625,0.01836395263671875,0.010440647602081299,0.06448394060134888
1713800423439220700,2.517220703125,0.01639842987060547,-0.05208200216293335,0.06722787022590637
1713800423456934700,2.5349345703125,-0.013429641723632812,-0.0318608283996582,0.03353710472583771
1713800423474660400,2.552660400390625,-0.013662338256835938,-0.03991585969924927,-0.03309723734855652
1713800423492383200,2.57038330078125,0.029657363891601562,-0.03151726722717285,-0.06730592250823975
1713800423510108000,2.58810791015625,0.019014358520507812,-0.03625321388244629,-0.06458282470703125
1713800423527826400,2.605826416015625,-0.06971931457519531,-0.013518691062927246,-0.05164456367492676
1713800423545550800,2.62355078125,-0.01627826690673828,-0.006661415100097656,-0.028596073389053345
1713800423563271200,2.641271240234375,0.03552055358886719,0.0014179348945617676,-0.04384255409240723
1713800423580992000,2.658991943359375,0.008355140686035156,0.009496450424194336,-0.10436257719993591
1713800423598712600,2.676712646484375,0.008314132690429688,0.03118795156478882,-0.09927734732627869
1713800423616429600,2.6944296875,-0.014361381530761719,0.027490317821502686,-0.0839102566242218
1713800423634158800,2.712158935546875,0.01665782928466797,0.031086266040802002,-0.04202607274055481
1713800423651887600,2.7298876953125,0.07333946228027344,0.007631123065948486,0.014571189880371094
1713800423669604900,2.74760498046875,0.09078407287597656,-0.04283171892166138,0.03181396424770355
1713800423687330600,2.76533056640625,-0.07589530944824219,-0.014043807983398438,0.0321669727563858
1713800423705050600,2.783050537109375,-0.2699909210205078,0.017878413200378418,0.03114655613899231
1713800423722771200,2.800771240234375,-0.2368755340576172,0.0036429762840270996,-0.025086522102355957
1713800423740498200,2.818498291015625,-0.019155502319335938,-0.04665344953536987,-0.03626716136932373
1713800423758219300,2.83621923828125,0.10723590850830078,-0.08093428611755371,-0.023019850254058838
1713800423775938800,2.853938720703125,0.03640937805175781,-0.057205140590667725,-0.02105310559272766
1713800423793651700,2.871651611328125,-0.04010486602783203,-0.0419614315032959,0.004014909267425537
1713800423811381500,2.889381591796875,-0.1344127655029297,0.008149564266204834,0.015402987599372864
1713800423829111000,2.907111083984375,-0.05280494689941406,0.052653968334198,-0.017496556043624878
1713800423846829600,2.92482958984375,0.01885223388671875,0.04431796073913574,-0.05561801791191101
1713800423864551400,2.942551513671875,0.03637886047363281,0.0438271164894104,-0.00852048397064209
1713800423882274600,2.960274658203125,-0.013937950134277344,0.0028972625732421875,0.0010546445846557617
1713800423899997200,2.9779970703125,-0.03219032287597656,0.028761744499206543,0.019864916801452637
1713800423917719300,2.99571923828125,-0.000804901123046875,0.010285377502441406,-0.019842952489852905
1713800423935441400,3.01344140625,0.0076160430908203125,0.017644286155700684,-0.053497493267059326
1713800423953158100,3.031158203125,-0.045540809631347656,0.02924591302871704,-0.016514301300048828
1713800423970884900,3.048884765625,-0.10857009887695312,-0.0018901824951171875,-0.04955612123012543
1713800423988609000,3.066609130859375,-0.1028127670288086,0.0165976881980896,0.01789720356464386
1713800424006331000,3.084330810546875,-0.015375137329101562,-0.04719787836074829,0.05356186628341675
1713800424024052200,3.10205224609375,0.02337932586669922,-0.0776900053024292,-0.00633278489112854
1713800424041775600,3.119775634765625,0.0319366455078125,-0.022732555866241455,-0.007896393537521362
1713800424059484200,3.137484130859375,-0.008026123046875,-0.010192036628723145,-0.011290758848190308
1713800424077220900,3.155220947265625,-0.05255413055419922,0.033790767192840576,-0.017007336020469666
1713800424094940700,3.172940673828125,-0.12386512756347656,0.06837177276611328,-0.007908090949058533
1713800424112660500,3.190660400390625,-0.0736541748046875,0.04524105787277222,-0.023551523685455322
1713800424130386000,3.208385986328125,0.04556846618652344,-0.04487067461013794,-0.04924499988555908
1713800424148109600,3.226109619140625,0.0008754730224609375,-0.04197174310684204,0.00959843397140503
1713800424165830700,3.24383056640625,-0.008296966552734375,-0.034529924392700195,-0.013312622904777527
1713800424183554000,3.261553955078125,0.019440650939941406,0.06811374425888062,-0.03538966178894043
1713800424201274600,3.279274658203125,0.012104034423828125,0.09717530012130737,-0.047766655683517456
1713800424218995200,3.2969951171875,0.0006666183471679688,0.052223801612854004,-0.014434918761253357
1713800424236705500,3.31470556640625,-0.10250186920166016,-0.006643891334533691,0.005093082785606384
1713800424254440400,3.3324404296875,-0.1853046417236328,-0.003730595111846924,0.051979050040245056
1713800424272151300,3.3501513671875,-0.15131378173828125,-0.01835477352142334,0.03594578802585602
1713800424289888800,3.367888671875,0.09937477111816406,-0.044745445251464844,-0.028633981943130493
1713800424307611100,3.385611083984375,0.21044921875,-0.0569191575050354,-0.049835726618766785
1713800424325332500,3.40333251953125,0.1548786163330078,-0.04411029815673828,-0.052221834659576416
1713800424343052800,3.421052734375,-0.04359245300292969,0.016758978366851807,0.0037275850772857666
1713800424360763100,3.43876318359375,-0.18350791931152344,0.01721322536468506,0.011505261063575745
1713800424378498000,3.456498046875,-0.12681865692138672,0.021418273448944092,-0.010763198137283325
1713800424396223000,3.474222900390625,-0.053694725036621094,0.025035977363586426,-0.03449420630931854
1713800424413941800,3.491941650390625,0.036205291748046875,-0.02913069725036621,-0.04769754409790039
1713800424431661800,3.509661865234375,0.02867603302001953,-0.011685550212860107,0.005727395415306091
1713800424449375700,3.527375732421875,0.029211997985839844,-0.00043213367462158203,0.009359046816825867
1713800424467110400,3.5451103515625,0.026261329650878906,0.024205327033996582,-0.023758962750434875
1713800424484833000,3.5628330078125,-0.026296615600585938,0.022236287593841553,-0.0033668875694274902
1713800424502555600,3.5805556640625,-0.14106464385986328,0.0008938908576965332,0.03049422800540924
1713800424520275700,3.598275634765625,-0.19991779327392578,-0.004075229167938232,0.05738130211830139
1713800424537990700,3.61599072265625,-0.14416217803955078,-0.001362919807434082,0.04282744228839874
1713800424555716900,3.633716796875,0.017364501953125,-0.03502500057220459,0.0035121887922286987
1713800424573444900,3.65144482421875,0.13010025024414062,-0.054710984230041504,-0.023944512009620667
1713800424591166200,3.669166259765625,0.01129150390625,-0.03257101774215698,-0.017827704548835754
1713800424608884500,3.686884521484375,-0.11692523956298828,0.0002968907356262207,-0.0047799646854400635
1713800424626611000,3.70461083984375,-0.13769912719726562,0.003413259983062744,-0.014051780104637146
1713800424644332800,3.722332763671875,-0.08711433410644531,-0.0869097113609314,0.00871133804321289
1713800424662056200,3.74005615234375,-0.07511711120605469,-0.13256430625915527,0.013697296380996704
1713800424679778300,3.7577783203125,0.16931915283203125,-0.1143115758895874,-0.027942433953285217
1713800424697500000,3.7755,0.20552635192871094,0.011391639709472656,-0.07725788652896881
1713800424715222000,3.793221923828125,-0.060591697692871094,0.16112768650054932,-0.1027437150478363
1713800424732945400,3.8109453125,-0.26102447509765625,0.23148292303085327,-0.057848021388053894
1713800424750663200,3.8286630859375,-0.18233776092529297,0.10549235343933105,-0.02398519217967987
1713800424768389000,3.84638916015625,0.0061969757080078125,0.01935964822769165,-0.04691460728645325
1713800424786112300,3.8641123046875,0.13865947723388672,-0.07840204238891602,-0.09300895035266876
1713800424803833600,3.88183349609375,0.13904476165771484,-0.11460620164871216,-0.045462727546691895
1713800424821557000,3.899556884765625,0.08170413970947266,-0.11217290163040161,-0.06401902437210083
1713800424839268000,3.91726806640625,0.06672954559326172,-0.04091691970825195,-0.09045422077178955
1713800424856999700,3.934999755859375,-0.01618194580078125,-0.017341792583465576,-0.0909990668296814
1713800424874722800,3.952722900390625,-0.17395877838134766,-0.013742327690124512,-0.04163193702697754
1713800424892434400,3.970434326171875,-0.24625873565673828,-0.01816779375076294,0.0037764310836791992
1713800424910167600,3.98816748046875,-0.23779773712158203,-0.006992518901824951,0.08129772543907166
1713800424927871500,4.00587158203125,-0.1805267333984375,-0.018459618091583252,0.09890410304069519
1713800424945613300,4.02361328125,-0.1365966796875,-0.09003818035125732,-0.006780147552490234
1713800424963337200,4.041337158203125,0.08533477783203125,-0.05885547399520874,-0.03580114245414734
1713800424981056500,4.059056396484375,0.1302356719970703,0.05204063653945923,-0.057601749897003174
1713800424998780000,4.07677978515625,0.059356689453125,0.038626015186309814,-0.05943703651428223
1713800425016488200,4.09448828125,0.04566192626953125,0.029653728008270264,0.0398215651512146
1713800425034226000,4.112225830078125,-0.0038366317749023438,-0.04530155658721924,0.02055835723876953
1713800425051945700,4.12994580078125,-0.1104736328125,-0.049709856510162354,0.04539157450199127
1713800425069664500,4.14766455078125,-0.4320507049560547,-0.022354304790496826,0.03507909178733826
1713800425087390700,4.165390625,-0.5646629333496094,0.0008492469787597656,0.030387908220291138
1713800425105113600,4.183113525390625,-0.28172779083251953,-0.02137291431427002,-0.037411659955978394
1713800425122835200,4.200835205078125,0.08983039855957031,0.06460750102996826,-0.033905029296875
1713800425140558000,4.21855810546875,0.41629791259765625,-0.06033340096473694,-0.06273892521858215
1713800425158281200,4.23628125,0.4435863494873047,-0.09356975555419922,0.08954352140426636
1713800425176001300,4.254001220703125,0.2602205276489258,-0.08910992741584778,0.04006725549697876
1713800425193724400,4.271724365234375,0.07921123504638672,-0.05671721696853638,0.04491773247718811
1713800425211447800,4.28944775390625,0.10254573822021484,-0.0750921368598938,0.06320059299468994
1713800425229164300,4.307164306640625,-0.0693674087524414,-0.03891879320144653,0.1574595719575882
1713800425246892300,4.324892333984375,-0.15830326080322266,-0.022635817527770996,0.07544039189815521
1713800425264612400,4.3426123046875,-0.013161659240722656,-0.023975461721420288,0.03128707408905029
1713800425282338000,4.360338134765625,0.1983785629272461,-0.12416210770606995,-0.013250172138214111
1713800425300053500,4.378053466796875,0.22445297241210938,-0.11372888088226318,0.013399884104728699
1713800425317768400,4.3957685546875,0.021862030029296875,-0.05507048964500427,-0.01120014488697052
1713800425335503600,4.413503662109375,-0.12288951873779297,0.03347030282020569,-0.018396228551864624
1713800425353225000,4.431224853515625,-0.16922760009765625,0.060432106256484985,-0.03710266947746277
1713800425370948000,4.448947998046875,-0.08868694305419922,0.023426294326782227,-0.05392603576183319
1713800425388666000,4.466666015625,0.057037353515625,-0.050245314836502075,-0.016957193613052368
1713800425406389800,4.4843896484375,0.1560955047607422,-0.11321401596069336,0.018872708082199097
1713800425424112600,4.502112548828125,0.1396503448486328,-0.10559013485908508,0.03796975314617157
1713800425441839400,4.51983935546875,0.02515697479248047,-0.04161056876182556,-0.01172417402267456
1713800425459560000,4.537559814453125,-0.07251167297363281,0.004104018211364746,0.019799664616584778
1713800425477282000,4.555281982421875,-0.034877777099609375,-0.01088559627532959,0.042993515729904175
1713800425495006500,4.57300634765625,0.11889839172363281,-0.0055655837059021,0.059439241886138916
1713800425512725800,4.590725830078125,0.10933685302734375,-0.0186498761177063,0.06737684458494186
1713800425530449200,4.60844921875,0.043852806091308594,-0.02083766460418701,0.0680941790342331
1713800425548170200,4.626170166015625,0.04555034637451172,-0.02888864278793335,-0.02412635087966919
1713800425565893600,4.6438935546875,0.049775123596191406,-0.0021857619285583496,-0.03813512623310089
1713800425583614500,4.661614501953125,-0.040256500244140625,-0.0022763609886169434,0.02347007393836975
1713800425601332200,4.679332275390625,-0.15480899810791016,0.011570096015930176,0.01130358874797821
1713800425619060700,4.697060791015625,-0.2283010482788086,0.015545785427093506,0.0052101463079452515
1713800425636782600,4.714782470703125,-0.19777297973632812,0.011089980602264404,0.000966385006904602
1713800425654502700,4.732502685546875,-0.062774658203125,0.007113158702850342,-0.06075802445411682
1713800425672226000,4.75022607421875,0.023421287536621094,-0.01549762487411499,-0.09128658473491669
1713800425689948400,4.767948486328125,-0.08640670776367188,0.04753750562667847,-0.01982550323009491
1713800425707668500,4.78566845703125,-0.18887615203857422,0.08564591407775879,-0.061147212982177734
1713800425725393200,4.80339306640625,-0.13126373291015625,0.031192123889923096,-0.013375908136367798
1713800425743116800,4.82111669921875,-0.06041717529296875,-0.0074654221534729,-0.11282902956008911
1713800425760838100,4.838838134765625,0.02178668975830078,0.021582841873168945,-0.09988324344158173
1713800425778561000,4.85656103515625,-0.16867542266845703,-0.024069368839263916,-0.010957270860671997
1713800425796283000,4.874282958984375,-0.4799308776855469,-0.03348839282989502,-0.05440860986709595
1713800425814005000,4.8920048828125,-0.7733383178710938,0.07400214672088623,0.12324947118759155
1713800425831726800,4.909726806640625,-0.49777984619140625,0.2083461880683899,0.2528936564922333
1713800425849450500,4.927450439453125,-0.08197212219238281,0.238235741853714,0.006066232919692993
1713800425867171600,4.945171630859375,-0.018703460693359375,0.3609127402305603,0.32958078384399414
1713800425884895200,4.962895263671875,0.4083404541015625,-0.006058484315872192,0.2396315336227417
1713800425902616000,4.980615966796875,0.7385196685791016,-0.16673490405082703,-0.15577387809753418
1713800425920339500,4.99833935546875,0.3182220458984375,-0.01946425437927246,-0.25798171758651733
1713800425938060800,5.016060791015625,-0.1717700958251953,-0.00863078236579895,-0.2575576901435852
1713800425955784000,5.033783935546875,-0.4114189147949219,0.15191254019737244,-0.3242587149143219
1713800425973502500,5.05150244140625,-0.3140287399291992,0.2448156476020813,-0.3437678813934326
1713800425991228000,5.069227783203125,0.035854339599609375,0.14958426356315613,-0.27860844135284424
1713800426008947000,5.086947021484375,0.3494253158569336,0.0076608359813690186,-0.18044792115688324
1713800426026668500,5.10466845703125,0.2568044662475586,-0.04079371690750122,-0.1166803389787674
1713800426044394500,5.12239453125,0.04583549499511719,-0.000315934419631958,-0.18328864872455597
1713800426062114300,5.1401142578125,0.04422473907470703,0.0642876923084259,-0.24534405767917633
1713800426079834600,5.157834716796875,0.004384040832519531,0.0886063277721405,-0.25966131687164307
1713800426097566700,5.175566650390625,-0.05493450164794922,0.11903095245361328,-0.28495895862579346
1713800426115285000,5.193284912109375,-0.01134490966796875,0.06302154064178467,-0.22992819547653198
1713800426133005800,5.211005859375,0.038619041442871094,0.024523794651031494,-0.25161147117614746
1713800426150728200,5.228728271484375,0.0818634033203125,0.03379225730895996,-0.16821607947349548
1713800426168450600,5.246450439453125,0.031180381774902344,-0.028750240802764893,-0.12444430589675903
1713800426186174000,5.264174072265625,0.027872085571289062,-0.012377291917800903,-0.09742352366447449
1713800426203896300,5.281896240234375,0.022579193115234375,0.02222415804862976,-0.15985505282878876
1713800426221617400,5.299617431640625,0.12360000610351562,0.013878941535949707,-0.2218579351902008
1713800426239331000,5.3173310546875,0.1259307861328125,0.041322410106658936,-0.24703751504421234
1713800426257062100,5.335062255859375,0.024950027465820312,0.0284939706325531,-0.1917515993118286
1713800426274780700,5.35278076171875,-0.056754112243652344,0.006511092185974121,-0.14058810472488403
1713800426292505300,5.37050537109375,-0.0162200927734375,0.014987736940383911,-0.10916212201118469
1713800426310230000,5.38822998046875,-0.028514862060546875,-0.008522629737854004,-0.14778003096580505
1713800426327952100,5.4059521484375,-0.059490203857421875,0.029425054788589478,-0.19544199109077454
1713800426345670000,5.423669921875,-0.1538677215576172,0.033993810415267944,-0.16910947859287262
1713800426363394300,5.441394287109375,-0.20970821380615234,0.02428334951400757,-0.09979422390460968
1713800426381120800,5.459120849609375,-0.16132259368896484,-0.010615140199661255,-0.05363840609788895
1713800426398842400,5.47684228515625,-0.01897430419921875,-0.03502824902534485,-0.07181230187416077
1713800426416552200,5.49455224609375,0.17819786071777344,-0.05423539876937866,-0.14126083254814148
1713800426434284000,5.512283935546875,0.03359794616699219,-0.05910816788673401,-0.18541765213012695
1713800426452009500,5.530009521484375,-0.1535491943359375,0.013326555490493774,-0.19811737537384033
1713800426469729800,5.547729736328125,-0.2863273620605469,0.0864725410938263,-0.18562506139278412
1713800426487453000,5.565452880859375,-0.2252368927001953,0.101239413022995,-0.2633381187915802
1713800426505174000,5.583174072265625,-0.04584026336669922,0.031036853790283203,-0.26251813769340515
1713800426522898000,5.60089794921875,0.03589630126953125,-0.04070654511451721,-0.2393762767314911
1713800426540613000,5.618613037109375,0.03766441345214844,-0.06386822462081909,-0.19034750759601593
1713800426558340900,5.6363408203125,-0.04032325744628906,0.001269221305847168,-0.2681765556335449
1713800426576059600,5.6540595703125,-0.19855785369873047,0.059972018003463745,-0.2709525525569916
1713800426593786600,5.67178662109375,-0.19220829010009766,0.10972711443901062,-0.2908056080341339
1713800426611508000,5.689508056640625,-0.07266616821289062,0.07673734426498413,-0.23889131844043732
1713800426629218600,5.707218505859375,-0.06759071350097656,0.011105954647064209,-0.19886480271816254
1713800426646946600,5.724946533203125,0.06257820129394531,0.01993870735168457,-0.1837943196296692
1713800426664672300,5.74267236328125,-0.0020999908447265625,0.03193557262420654,-0.16330379247665405
1713800426682398500,5.7603984375,-0.1541881561279297,0.008672863245010376,-0.14361858367919922
1713800426700120600,5.77812060546875,-0.12732887268066406,-0.001092672348022461,-0.11275161802768707
1713800426717841400,5.79584130859375,-0.10614299774169922,0.0737369954586029,-0.14331305027008057
1713800426735562000,5.81356201171875,0.06418514251708984,0.0982525646686554,-0.20393049716949463
1713800426753289000,5.8312890625,0.20033836364746094,0.06272363662719727,-0.1738176792860031
1713800426771010000,5.849010009765625,0.11914348602294922,0.06361657381057739,0.03595060110092163
1713800426788734200,5.866734130859375,0.13302993774414062,-0.01670423150062561,0.2601946294307709
1713800426806442200,5.884442138671875,0.32325267791748047,-0.14184275269508362,0.38995620608329773
1713800426824175600,5.902175537109375,0.32147693634033203,-0.16821563243865967,0.44080308079719543
1713800426841898800,5.919898681640625,0.07101821899414062,-0.21884039044380188,0.33747512102127075
1713800426859620000,5.9376201171875,-0.18654155731201172,-0.20277589559555054,0.29666125774383545
1713800426877340400,5.95534033203125,-0.3041391372680664,-0.18165135383605957,0.2681123912334442
1713800426895067400,5.9730673828125,-0.3785867691040039,-0.30735692381858826,0.19148769974708557
1713800426912788200,5.990788330078125,-0.048613548278808594,-0.5102124810218811,0.24660846590995789
1713800426930509000,6.008509033203125,0.5959644317626953,-0.5157812833786011,-0.05764760822057724
1713800426948226800,6.026226806640625,0.7858591079711914,-0.38809916377067566,-0.10556451976299286
1713800426965954800,6.043954833984375,0.3720273971557617,-0.2749803066253662,0.11704449355602264
1713800426983672300,6.06167236328125,-0.3391733169555664,-0.14665406942367554,0.1580568552017212
1713800427001398500,6.0793984375,-0.5140380859375,-0.15487664937973022,0.0808088481426239
1713800427019122200,6.0971220703125,-0.27072906494140625,-0.02779686450958252,0.12384140491485596
1713800427036843000,6.114843017578125,-0.11602973937988281,-0.005155682563781738,0.20957112312316895
1713800427054565400,6.1325654296875,-0.19058895111083984,-0.01397407054901123,0.26444199681282043
1713800427072289000,6.1502890625,-0.2205657958984375,0.014745533466339111,0.21661272644996643
1713800427090011400,6.168011474609375,-0.027945518493652344,-0.08294409513473511,0.15239718556404114
1713800427107717000,6.185717041015625,0.2440633773803711,-0.20013093948364258,0.08101969957351685
1713800427125454000,6.2034541015625,0.26810169219970703,-0.19211363792419434,0.0013412535190582275
1713800427143178800,6.2211787109375,0.17370223999023438,-0.14022091031074524,0.025110185146331787
1713800427160900900,6.23890087890625,0.05872058868408203,-0.09622055292129517,-0.03174367547035217
1713800427178622200,6.256622314453125,-0.09070968627929688,-0.0022224783897399902,-0.006753593683242798
1713800427196335000,6.274335205078125,-0.0320281982421875,-0.029116570949554443,0.009360402822494507
1713800427214066200,6.292066162109375,0.07535362243652344,-0.08568644523620605,0.027341485023498535
1713800427231789800,6.309789794921875,0.2535743713378906,-0.09234422445297241,0.0378357470035553
1713800427249506000,6.327506103515625,0.05663108825683594,-0.05313163995742798,0.08068621158599854
1713800427267233300,6.3452333984375,-0.11510562896728516,-0.01813429594039917,0.18004825711250305
1713800427284956400,6.362956298828125,0.05994892120361328,-0.026092708110809326,0.11067074537277222
1713800427302670800,6.3806708984375,0.26952075958251953,-0.06977486610412598,0.04830506443977356
1713800427320404000,6.398404052734375,0.14306163787841797,-0.13761699199676514,0.03978443145751953
1713800427338122500,6.41612255859375,-0.06911182403564453,-0.11428746581077576,0.021094441413879395
1713800427355846100,6.43384619140625,-0.18345069885253906,-0.0779380202293396,0.05610334873199463
1713800427373556500,6.451556396484375,-0.13405609130859375,-0.09640520811080933,0.040718913078308105
1713800427391289600,6.46928955078125,0.14336299896240234,-0.14622724056243896,-0.041956961154937744
1713800427409000400,6.48700048828125,0.4899606704711914,-0.16141372919082642,-0.14127719402313232
1713800427426735900,6.50473583984375,0.42238712310791016,-0.1213001012802124,-0.18993687629699707
1713800427444456700,6.522456787109375,0.09698104858398438,0.023512184619903564,-0.20652687549591064
1713800427462180400,6.540180419921875,-0.16262340545654297,0.1876518726348877,-0.183937668800354
1713800427479902500,6.55790234375,0.005228996276855469,0.22501707077026367,-0.12106496095657349
1713800427497623600,6.57562353515625,0.08497333526611328,0.17826849222183228,-0.004624843597412109
1713800427515347000,6.593346923828125,-0.11769390106201172,0.1885586380958557,0.16475588083267212
1713800427533068000,6.611068115234375,-0.39487743377685547,0.10743534564971924,0.10327410697937012
1713800427550787000,6.628787109375,-0.44731903076171875,0.08691662549972534,0.16947931051254272
1713800427568513000,6.646512939453125,-0.35710716247558594,-0.025336623191833496,0.17029011249542236
1713800427586235400,6.6642353515625,-0.3079204559326172,-0.14041739702224731,0.19820255041122437
1713800427603958800,6.681958740234375,-0.2500791549682617,-0.13434576988220215,0.1269630789756775
1713800427621676300,6.69967626953125,0.006955146789550781,-0.10310113430023193,0.05149507522583008
1713800427639401200,6.717401123046875,0.09775066375732422,-0.15179705619812012,-0.006179094314575195
1713800427657127400,6.73512744140625,0.10707473754882812,-0.06284719705581665,0.004104793071746826
1713800427674835200,6.752835205078125,-0.2628030776977539,-0.10923177003860474,-0.06304103136062622
1713800427692568600,6.770568603515625,-0.4194602966308594,0.2168797254562378,-0.3001682162284851
1713800427710292200,6.788292236328125,-0.05228137969970703,0.06517434120178223,-0.26362133026123047
1713800427728013600,6.806013671875,0.23166847229003906,0.2890136241912842,-0.4632191061973572
1713800427745739300,6.8237392578125,0.36423492431640625,0.388690710067749,-0.28981077671051025
1713800427763450000,6.8414501953125,0.6337003707885742,0.44271624088287354,-0.34144169092178345
1713800427781178400,6.859178466796875,0.7583189010620117,0.44706952571868896,-0.26966047286987305
1713800427798902800,6.87690283203125,0.03199577331542969,0.6101342439651489,-0.10198420286178589
1713800427816626000,6.8946259765625,0.14630126953125,0.4622924327850342,-0.0635485053062439
1713800427834349300,6.912349365234375,0.24904632568359375,0.16753268241882324,0.220558762550354
1713800427852064000,6.93006396484375,0.5101690292358398,-0.11020374298095703,0.047174930572509766
1713800427869794300,6.947794189453125,0.5277729034423828,-0.24204909801483154,-0.17049598693847656
1713800427887515400,6.965515380859375,-0.3367595672607422,-0.06118810176849365,0.17634069919586182
1713800427905237500,6.983237548828125,-1.1708650588989258,-0.041252732276916504,0.41155898571014404
1713800427922956500,7.00095654296875,-0.8247156143188477,0.16894376277923584,0.2942124605178833
1713800427940678400,7.018678466796875,-0.21757793426513672,0.011908888816833496,-0.13251793384552002
1713800427958403600,7.036403564453125,-0.11798572540283203,0.23994314670562744,-0.18850421905517578
1713800427976129800,7.0541298828125,-0.4790983200073242,0.39296114444732666,-0.12523198127746582
1713800427993844700,7.0718447265625,-0.7643585205078125,0.6350312232971191,0.19877660274505615
1713800428011571700,7.08957177734375,-0.6270418167114258,0.7199668884277344,0.13401317596435547
1713800428029295600,7.107295654296875,-0.5618181228637695,0.7492728233337402,-0.18793118000030518
1713800428047018000,7.12501806640625,-0.29337406158447266,0.8461521863937378,0.02107560634613037
1713800428064738800,7.14273876953125,-0.03194427490234375,0.5851143598556519,0.17687439918518066
1713800428082462500,7.16046240234375,0.7964715957641602,0.5010261535644531,0.23542356491088867
1713800428100183600,7.17818359375,0.38481998443603516,0.5237051248550415,0.21029818058013916
1713800428117907200,7.1959072265625,-0.6335201263427734,0.7028204202651978,-0.09301221370697021
1713800428135628800,7.21362890625,-1.0021896362304688,1.0943557024002075,-0.15526235103607178
1713800428153352000,7.23135205078125,-0.7615375518798828,1.1395580768585205,-0.05756664276123047
1713800428171073300,7.2490732421875,-0.6788482666015625,1.4415088891983032,0.26428306102752686
1713800428188797000,7.266796875,-0.6501989364624023,1.339940071105957,0.44631993770599365
1713800428206518300,7.284518310546875,-0.2555074691772461,1.1255601644515991,0.23067104816436768
1713800428224240400,7.302240478515625,0.8043231964111328,0.8819149732589722,-0.4200277328491211
1713800428241952300,7.3199521484375,-0.4355602264404297,1.2476776838302612,-0.826386570930481
1713800428259680800,7.3376806640625,-1.9596757888793945,0.6867075562477112,-0.2705466151237488
1713800428277405700,7.35540576171875,-1.7951173782348633,1.7771342992782593,1.0218620300292969
1713800428295150800,7.37315087890625,0.7744894027709961,1.1116200685501099,1.252284049987793
1713800428312855000,7.39085498046875,2.1725873947143555,0.7613717317581177,0.9385719299316406
1713800428330569000,7.40856884765625,0.848261833190918,0.9652729034423828,0.7318664193153381
1713800428348296200,7.426296142578125,-1.0445547103881836,1.5166436433792114,0.7097421884536743
1713800428366022000,7.44402197265625,-2.5219955444335938,2.023275852203369,0.31214410066604614
1713800428383741700,7.46174169921875,-2.794297218322754,1.9259063005447388,0.44339504837989807
1713800428401465900,7.4794658203125,-1.493180274963379,1.6384984254837036,0.9142895340919495
1713800428419175000,7.4971748046875,-0.2920255661010742,1.411354660987854,1.1996548175811768
1713800428436899300,7.5148994140625,0.16082382202148438,1.6909054517745972,1.4786317348480225
1713800428454631200,7.532631103515625,-0.3963165283203125,1.8767354488372803,1.4087166786193848
1713800428472352300,7.550352294921875,-0.1599903106689453,2.1722822189331055,1.049446940422058
1713800428490079200,7.568079345703125,0.9656238555908203,1.9120004177093506,0.8532801866531372
1713800428507799300,7.58579931640625,-2.0415453910827637,1.549647331237793,2.0636096000671387
1713800428525519000,7.60351904296875,-2.026383399963379,0.6569380760192871,1.0583574771881104
1713800428543245000,7.6212451171875,-0.2753314971923828,0.9394267797470093,2.0813779830932617
1713800428560967000,7.638966796875,-0.007580757141113281,0.7968106269836426,3.5853426456451416
1713800428578685200,7.656685302734375,-1.8592281341552734,-0.21608316898345947,4.642482280731201
1713800428596394500,7.67439453125,-4.209815979003906,-0.07436490058898926,4.281271457672119
1713800428614133800,7.6921337890625,-5.080292701721191,-0.5384972095489502,3.158644676208496
1713800428631853300,7.709853271484375,-5.6855926513671875,-2.070425271987915,0.179976224899292
1713800428649581000,7.7275810546875,-1.93580961227417,-2.8432512283325195,-2.737529754638672
1713800428667300000,7.745300048828125,7.160679817199707,-3.9104530811309814,-8.67382526397705
1713800428685022500,7.7630224609375,2.953385353088379,1.067819595336914,-6.02375602722168
1713800428702746000,7.78074609375,0.578338623046875,2.17956805229187,-7.371817111968994
1713800428720468500,7.798468505859375,3.066922187805176,3.6328318119049072,-3.3158183097839355
1713800428738189800,7.81618994140625,1.4911623001098633,7.138406753540039,0.7486319541931152
1713800428755913200,7.833913330078125,-1.321110725402832,5.217750549316406,0.17942428588867188
1713800428773634800,7.851634765625,-1.262176513671875,4.786127090454102,2.2647011280059814
1713800428791358000,7.86935791015625,1.3543291091918945,2.4791512489318848,3.107794761657715
1713800428809079300,7.887079345703125,8.353840827941895,-7.503106117248535,2.8758435249328613
1713800428826800000,7.904800048828125,3.9722299575805664,-4.529762268066406,5.735405921936035
1713800428844526000,7.922526123046875,-0.04473304748535156,-5.276239395141602,3.955432415008545
1713800428862247400,7.940247314453125,0.8111686706542969,-7.330615043640137,3.1452722549438477
1713800428879970000,7.957969970703125,-0.00024509429931640625,-7.248964309692383,3.4287078380584717
1713800428897689300,7.975689453125,-1.6654729843139648,-4.870359420776367,4.006253242492676
1713800428915410400,7.993410400390625,-2.357534885406494,-0.8267388343811035,4.160233020782471
1713800428933140500,8.011140380859375,3.0514450073242188,-1.0859346389770508,2.6508352756500244
1713800428950856000,8.02885595703125,4.250985622406006,-0.7216684818267822,0.9858560562133789
1713800428968580400,8.046580322265624,1.7236385345458984,0.7975084781646729,0.7280254364013672
1713800428986302000,8.064302001953125,-0.4985342025756836,1.383538007736206,1.765303611755371
1713800429004028200,8.082028076171875,-0.4560227394104004,1.494246244430542,2.5667295455932617
1713800429021748200,8.099748291015626,4.800826072692871,0.42278599739074707,0.21263456344604492
1713800429039459800,8.1174599609375,5.574787139892578,0.6893017292022705,1.0777511596679688
1713800429057192000,8.13519189453125,2.058621406555176,-0.10943126678466797,-0.644507884979248
1713800429074918000,8.15291796875,-5.433167934417725,-1.2446177005767822,-2.5784225463867188
1713800429092638200,8.17063818359375,-15.083099365234375,-3.0658819675445557,-4.278416156768799
1713800429110361000,8.188361083984375,-3.685093879699707,-2.4814648628234863,-1.5449070930480957
1713800429128082700,8.206082763671875,-0.05035591125488281,-2.349823236465454,-1.5945324897766113
1713800429145794800,8.223794921875,3.341054916381836,-0.5862734317779541,-1.301504135131836
1713800429163515400,8.241515380859376,4.4931960105896,0.1300053596496582,-1.024817943572998
1713800429181249800,8.259249755859376,2.2946863174438477,0.7135155200958252,2.268953323364258
1713800429198971000,8.276970947265625,3.16276216506958,-1.4856728315353394,1.6446905136108398
1713800429216691200,8.294691162109375,-1.7316322326660156,-1.757845401763916,1.4648137092590332
1713800429234404000,8.312404052734376,-3.4535815715789795,-1.9957242012023926,-2.1856303215026855
1713800429252141600,8.3301416015625,-4.664653301239014,0.10243010520935059,-1.5281472206115723
1713800429269856800,8.347856689453126,-3.9822096824645996,2.5046353340148926,0.8800687789916992
1713800429287585300,8.365585205078125,-2.8482308387756348,2.4346652030944824,0.6320829391479492
1713800429305307000,8.383306884765625,-0.0023522377014160156,1.0575075149536133,-2.2739505767822266
1713800429323029800,8.40102978515625,0.050499916076660156,0.9551839828491211,-2.74239444732666
1713800429340746800,8.418746826171875,1.1813197135925293,-0.7234870195388794,-3.0104494094848633
1713800429358473500,8.436473388671875,11.044805526733398,-9.989891052246094,1.596095085144043
1713800429376197400,8.454197265625,1.8239493370056152,-5.2262163162231445,-0.4305086135864258
1713800429393919500,8.47191943359375,-3.206982135772705,-2.8419392108917236,-6.176847457885742
1713800429411641300,8.489641357421876,-3.381709575653076,-0.45580077171325684,-1.7615890502929688
1713800429429364500,8.507364501953125,-4.2496843338012695,3.271019697189331,1.0030794143676758
1713800429447085800,8.5250859375,1.4961950778961182,7.699430465698242,1.8433284759521484
1713800429464809200,8.542809326171875,1.2543299198150635,3.6190555095672607,0.920628547668457
1713800429482530800,8.56053076171875,1.574507236480713,-1.4017081260681152,0.231903076171875
1713800429500252400,8.57825244140625,3.1854543685913086,-2.2189130783081055,0.3381843566894531
1713800429517976600,8.5959765625,3.019597053527832,-2.305593729019165,1.3473644256591797
1713800429535694800,8.61369482421875,3.2032418251037598,-2.807387351989746,1.3382177352905273
1713800429553420300,8.631420166015625,3.3044633865356445,-2.4105520248413086,-0.10727500915527344
1713800429571138800,8.649138916015625,2.832465171813965,-0.7078428268432617,-1.4630374908447266
1713800429588860200,8.666860107421876,1.6651761531829834,-0.35941123962402344,-1.9714889526367188
1713800429606588400,8.68458837890625,1.860200047492981,-1.4065227508544922,-2.1108341217041016
1713800429624309500,8.7023095703125,1.8397663831710815,-1.656602382659912,-1.9492120742797852
1713800429642028000,8.720028076171875,1.4777040481567383,-1.4627671241760254,-1.5066051483154297
1713800429659753200,8.737753173828125,1.4868108034133911,-1.369652271270752,-1.4101476669311523
1713800429677479400,8.7554794921875,0.9541223645210266,-1.3071308135986328,-1.2577600479125977
1713800429695199200,8.77319921875,0.7315286993980408,-1.2532567977905273,-0.8736739158630371
1713800429712922400,8.79092236328125,0.516221284866333,-1.3058152198791504,-0.391416072845459
1713800429730644500,8.80864453125,0.4221176207065582,-1.3898606300354004,0.09427022933959961
1713800429748364500,8.826364501953124,0.11902320384979248,-1.4333586692810059,0.4135746955871582
1713800429766091500,8.844091552734374,-0.5989395380020142,-1.4977421760559082,0.9204621315002441
1713800429783812400,8.861812255859375,-0.9106295704841614,-1.190537452697754,1.6881685256958008
1713800429801533400,8.879533447265626,-1.4223840236663818,-1.146352767944336,2.0342798233032227
1713800429819256000,8.897256103515625,-2.8674681186676025,-1.3140883445739746,1.1033072471618652
1713800429836979500,8.9149794921875,-3.032773733139038,-0.5864286422729492,0.3324732780456543
1713800429854697500,8.932697509765624,-3.1756653785705566,-0.1425633430480957,-0.8049688339233398
1713800429872423000,8.9504228515625,-2.8207223415374756,0.12901878356933594,-1.3634757995605469
1713800429890146300,8.968146240234375,-2.936359405517578,0.8769941329956055,-2.3730788230895996
1713800429907867600,8.98586767578125,-2.4083664417266846,1.417314052581787,-3.7546935081481934
1713800429925591300,9.00359130859375,-2.4192113876342773,2.2679996490478516,-3.3169379234313965
1713800429943307800,9.021307861328125,-2.2409069538116455,1.2783169746398926,-4.48951530456543
1713800429961035800,9.039035888671876,-0.4087011218070984,1.394296646118164,-5.272467613220215
1713800429978757000,9.056757080078125,-2.068714141845703,0.30028772354125977,-6.307755470275879
1713800429996480800,9.074480712890624,-1.9493052959442139,3.684813976287842,-4.999929904937744
1713800430014202000,9.0922021484375,0.13617151975631714,7.163100242614746,-2.0755739212036133
1713800430031924500,9.109924560546874,-1.3052034378051758,5.206185340881348,0.1291670799255371
1713800430049650700,9.127650634765626,0.053546249866485596,3.899738311767578,-0.28156137466430664
1713800430067370200,9.145370361328125,2.01570725440979,3.2215542793273926,0.8026957511901855
1713800430085091800,9.163091796875,-0.9667738080024719,0.9928722381591797,2.2351694107055664
1713800430102810600,9.180810546875,-0.3759434223175049,0.7215480804443359,0.7893714904785156
1713800430120538600,9.19853857421875,2.6229915618896484,2.8352928161621094,1.0006389617919922
1713800430138258400,9.216258544921875,2.575275182723999,2.0960326194763184,1.266404628753662
1713800430155982300,9.233982421875,0.7415263056755066,-1.2914128303527832,3.1914334297180176
1713800430173701000,9.251701171875,-0.08751830458641052,-0.15161895751953125,3.0300135612487793
1713800430191426000,9.269426025390626,-0.9583510756492615,-1.4516143798828125,1.3689899444580078
1713800430209143300,9.287143310546876,0.8913188576698303,0.39667272567749023,3.4733357429504395
1713800430226870300,9.304870361328126,-1.733464002609253,-1.8794984817504883,3.1232361793518066
1713800430244590600,9.322590576171875,-0.23888522386550903,-1.6286206245422363,2.5604496002197266
1713800430262315500,9.3403154296875,1.984398365020752,-3.8302502632141113,1.2531776428222656
1713800430280038700,9.35803857421875,-1.8233559131622314,-2.185664176940918,4.101626396179199
1713800430297760000,9.375760009765624,-0.9493898153305054,-1.714855670928955,1.8914952278137207
1713800430315479000,9.39347900390625,-0.05361378192901611,-1.759042739868164,0.3714466094970703
1713800430333205000,9.411205078125,-0.2663276195526123,-2.1351051330566406,-0.7273759841918945
1713800430350928100,9.42892822265625,-0.07242512702941895,-2.3847270011901855,-0.9281249046325684
1713800430368653000,9.446653076171875,-0.7100807428359985,-3.590425968170166,-1.08439302444458
1713800430386372600,9.46437255859375,-0.1813754439353943,-3.0424821376800537,-1.6923503875732422
1713800430404094500,9.482094482421875,-1.0811783075332642,-0.5110788345336914,-0.8369522094726562
1713800430421817600,9.499817626953124,-0.32337456941604614,-0.7815098762512207,-0.42583370208740234
1713800430439539000,9.5175390625,-0.1160382628440857,-1.9750797748565674,-0.7131767272949219
1713800430457261300,9.53526123046875,-1.9351675510406494,-1.3000473976135254,-1.8969464302062988
1713800430474985000,9.55298486328125,-2.5152854919433594,-1.1293344497680664,-2.1448006629943848
1713800430492703200,9.570703125,-2.064523696899414,-0.27958202362060547,-1.26493501663208
1713800430510428700,9.5884287109375,-0.309586763381958,-0.49944305419921875,-1.198948860168457
1713800430528151800,9.60615185546875,0.3340895175933838,0.2461991310119629,-2.075228691101074
1713800430545870300,9.623870361328125,-1.0547603368759155,0.3501400947570801,-1.9605984687805176
1713800430563599000,9.64159912109375,-1.061803936958313,0.7051162719726562,-2.2396864891052246
1713800430581314800,9.659314697265625,0.4719616174697876,0.5001711845397949,-2.3589677810668945
1713800430599039000,9.6770390625,0.544814944267273,0.1950984001159668,-1.2118754386901855
1713800430616759300,9.69475927734375,1.9358539581298828,0.3032679557800293,0.32529115676879883
1713800430634485000,9.712485107421875,1.8945982456207275,0.5016818046569824,1.512162685394287
1713800430652208600,9.730208740234374,0.29492825269699097,1.068784236907959,2.775991916656494
1713800430669930800,9.7479306640625,0.0489690899848938,1.1695899963378906,1.9706287384033203
1713800430687656400,9.765656494140625,0.39639410376548767,1.0710906982421875,0.7651543617248535
1713800430705374200,9.783374267578125,1.0024542808532715,0.6449556350708008,-0.09820699691772461
1713800430723098000,9.80109814453125,1.065057635307312,-0.38074445724487305,-0.524111270904541
1713800430740820200,9.8188203125,0.7263592481613159,-0.8547611236572266,-0.8817048072814941
1713800430758541300,9.836541259765625,0.5042110085487366,-1.898350715637207,-0.7416505813598633
1713800430776264000,9.854263916015626,-0.03598073124885559,-2.653409957885742,-0.5816421508789062
1713800430793987300,9.8719873046875,0.16431134939193726,-3.404301881790161,0.4498715400695801
1713800430811716900,9.889716796875,1.6418640613555908,-3.851738929748535,1.5181965827941895
1713800430829431000,9.90743115234375,1.2362644672393799,-3.634352684020996,3.179952621459961
1713800430847154400,9.925154541015624,-0.8866333961486816,-5.323430061340332,4.1521406173706055
1713800430864875500,9.94287548828125,-1.7864234447479248,-1.6713824272155762,5.704170227050781
1713800430882596000,9.96059619140625,-1.6929261684417725,-2.6111111640930176,5.035778999328613
1713800430900323000,9.978322998046876,-1.608404278755188,-3.053379535675049,3.860283136367798
1713800430918038500,9.99603857421875,0.09313666820526123,0.005793094635009766,2.1377925872802734
1713800430935764700,10.0137646484375,-0.07334315776824951,0.15903186798095703,-0.10998678207397461
1713800430953488400,10.03148828125,-0.6309889554977417,0.38390350341796875,-1.7318930625915527
1713800430971209700,10.049209716796875,-1.149269938468933,2.282364845275879,-1.0770206451416016
1713800430988929500,10.066929443359374,0.7766004800796509,-0.5887908935546875,-0.7663583755493164
1713800431006653200,10.084653076171875,1.344639539718628,-0.3215675354003906,-2.822537899017334
1713800431024379000,10.10237890625,0.87730473279953,2.0285682678222656,-1.5810441970825195
1713800431042098700,10.1200986328125,1.3275082111358643,3.0718908309936523,-2.651095390319824
1713800431059822300,10.137822265625,-1.7402045726776123,3.074307441711426,-2.435518741607666
1713800431077542400,10.15554248046875,-7.828941822052002,2.68942928314209,-0.33348560333251953
1713800431095267000,10.17326708984375,-4.878437042236328,1.6441431045532227,-1.416365623474121
1713800431112989400,10.190989501953124,-1.938035011291504,1.6644935607910156,-1.5328354835510254
1713800431130717700,10.2087177734375,0.17434453964233398,3.2224960327148438,-1.5069332122802734
1713800431148433000,10.226432861328124,6.02570104598999,7.904057502746582,2.0506412982940674
1713800431166156300,10.24415625,2.9338343143463135,7.608964920043945,7.476411819458008
1713800431183877400,10.26187744140625,1.9455718994140625,-1.0234832763671875,5.063974380493164
1713800431201601300,10.279601318359376,-0.6433947086334229,-2.2600650787353516,1.9877314567565918
1713800431219322400,10.297322265625,-1.3228285312652588,1.597158432006836,0.27550721168518066
1713800431237045500,10.31504541015625,1.5350806713104248,2.2965993881225586,-0.04527688026428223
1713800431254766800,10.332766845703125,3.810797691345215,1.6809940338134766,0.9058647155761719
1713800431272490800,10.35049072265625,2.624910831451416,0.3165426254272461,1.7408623695373535
1713800431290206500,10.36820654296875,-0.3135462999343872,-1.7878508567810059,1.9568700790405273
1713800431307935500,10.385935546875,0.3840981125831604,-4.092919826507568,3.1014111042022705
1713800431325651000,10.40365087890625,2.7900824546813965,-10.065698623657227,2.1905770301818848
1713800431343376100,10.421376220703126,-1.175150752067566,-7.9214935302734375,-0.4746849536895752
1713800431361102300,10.439102294921875,1.6561890840530396,-3.3420820236206055,-0.25219225883483887
1713800431378822700,10.45682275390625,0.9901943206787109,-1.1533598899841309,-0.33655428886413574
1713800431396546600,10.474546630859376,-0.12652361392974854,1.2850713729858398,-0.6892921924591064
1713800431414269000,10.49226904296875,-0.5406938791275024,1.3910388946533203,-0.49410533905029297
1713800431431991300,10.5099912109375,-2.1030383110046387,-1.1902875900268555,0.26937437057495117
1713800431449718500,10.527718505859376,-1.8574411869049072,-2.613833427429199,0.8837013244628906
1713800431467434800,10.545434814453126,-0.49007368087768555,-2.61385440826416,1.0137593746185303
1713800431485158100,10.563158203125,-1.0330828428268433,-1.8688268661499023,-0.11914277076721191
1713800431502879500,10.58087939453125,-0.10378840565681458,0.14732933044433594,0.4203575849533081
1713800431520603000,10.598602783203125,1.3825435638427734,2.5603771209716797,-0.40171170234680176
1713800431538324200,10.61632421875,-0.5827858448028564,2.5077247619628906,-0.7717894315719604
1713800431556047400,10.63404736328125,-3.211343288421631,1.6671037673950195,-0.34977078437805176
1713800431573768700,10.651768798828124,-2.4499313831329346,1.949233055114746,-0.7326322793960571
1713800431591492400,10.669492431640625,-2.8864145278930664,2.699835777282715,-2.2938008308410645
1713800431609213700,10.687213623046874,-1.805836796760559,4.637721061706543,-3.2884674072265625
1713800431626927000,10.704927001953125,1.6365599632263184,5.348997116088867,-2.884902000427246
1713800431644651500,10.722651611328125,3.136253833770752,3.7008895874023438,-2.2475714683532715
1713800431662384400,10.74038427734375,3.1423118114471436,1.026449203491211,-0.6442998647689819
1713800431680101400,10.758101318359374,3.3767504692077637,-0.7751226425170898,-0.23621702194213867
1713800431697827600,10.77582763671875,-1.4121907949447632,-2.3619842529296875,-1.4748198986053467
1713800431715547400,10.79354736328125,-4.872956275939941,1.6136817932128906,0.36314964294433594
1713800431733269500,10.81126953125,-3.2740225791931152,7.392917633056641,1.3115663528442383
1713800431750992000,10.828991943359375,-0.2721278667449951,6.557733535766602,0.6790366172790527
1713800431768712700,10.846712646484375,-0.2586498260498047,5.725618362426758,1.7963237762451172
1713800431786436600,10.8644365234375,-1.591224193572998,4.936497688293457,1.8319206237792969
1713800431804160000,10.882159912109374,-0.227095365524292,2.8515777587890625,1.7855210304260254
1713800431821881000,10.899881103515625,2.807114362716675,0.10042476654052734,1.6494241952896118
1713800431839604500,10.9176044921875,4.355880260467529,-2.1130332946777344,1.2344188690185547
1713800431857325800,10.935325927734375,4.692913055419922,-3.3457136154174805,0.5389342308044434
1713800431875049200,10.95304931640625,4.068383693695068,-3.053762435913086,1.2553651332855225
1713800431892765700,10.970765625,3.813429832458496,-3.8098373413085938,1.7696011066436768
1713800431910493700,10.98849365234375,2.439039945602417,-4.590514659881592,1.4877281188964844
1713800431928215800,11.0062158203125,1.7922563552856445,-4.691192626953125,1.4493467807769775
1713800431945938000,11.02393798828125,1.6515507698059082,-4.224820613861084,1.5710190534591675
1713800431963655000,11.041655029296875,1.2724542617797852,-4.819058895111084,1.867182970046997
1713800431981381600,11.059381591796875,0.11556386947631836,-5.580455780029297,1.7038280963897705
1713800431999105500,11.07710546875,-0.569758415222168,-4.562305927276611,0.7343754768371582
1713800432016827600,11.09482763671875,-1.116114616394043,-2.7068662643432617,0.23300957679748535
1713800432034548000,11.1125478515625,-0.9846594333648682,-0.9354534149169922,0.3876309394836426
1713800432052271900,11.13027197265625,-0.04970884323120117,0.08369255065917969,0.10722696781158447
1713800432069994800,11.147994873046875,0.26534533500671387,1.2408437728881836,-0.3976709842681885
1713800432087717600,11.165717529296876,-1.7571532726287842,2.739323616027832,-0.8046932220458984
1713800432105438200,11.183438232421874,-3.6707561016082764,2.8917999267578125,-0.9578016996383667
1713800432123161600,11.20116162109375,-6.8675971031188965,4.290246963500977,0.29121387004852295
1713800432140883000,11.218883056640625,-6.093778610229492,4.898895263671875,0.33796942234039307
1713800432158605800,11.236605712890626,-4.196863174438477,5.102182388305664,0.5642131567001343
1713800432176327400,11.254327392578125,-0.38990211486816406,4.2403459548950195,-0.08858561515808105
1713800432194050600,11.272050537109376,2.823096752166748,3.9799442291259766,-0.5977224111557007
1713800432211772000,11.28977197265625,3.080906867980957,3.48394775390625,-0.3767979145050049
1713800432229495000,11.3074951171875,-4.75780725479126,-0.23403644561767578,4.00919246673584
1713800432247217700,11.3252177734375,7.723978042602539,-1.3749237060546875,5.365993022918701
1713800432264934100,11.34293408203125,2.6621663570404053,1.0507354736328125,1.2879687547683716
1713800432282656800,11.36065673828125,-2.5084738731384277,2.659353256225586,-2.04118013381958
1713800432300384300,11.37838427734375,5.688416481018066,1.669205665588379,-1.0118203163146973
1713800432318105900,11.39610595703125,8.57840347290039,0.6632604598999023,-1.9753261804580688
1713800432335824400,11.413824462890625,-0.6361303329467773,-0.32890987396240234,-0.172510027885437
1713800432353549000,11.431549072265625,-3.487494707107544,-1.3586978912353516,0.5404402017593384
1713800432371273700,11.449273681640625,1.1078702211380005,-2.405484199523926,1.6253468990325928
1713800432388994600,11.46699462890625,3.5965352058410645,-3.9751787185668945,2.8138699531555176
1713800432406716000,11.4847158203125,0.988550066947937,-3.960751533508301,2.5939266681671143
1713800432424438300,11.502438232421875,-1.0148810148239136,-3.006910800933838,0.19809234142303467
1713800432442163700,11.520163818359375,-0.6150213479995728,-1.0766401290893555,-0.8079807758331299
1713800432459884000,11.537884033203126,-0.1604556441307068,-0.7336959838867188,-0.8213461637496948
1713800432477597700,11.55559765625,-0.028414905071258545,-1.3204936981201172,-0.41488611698150635
1713800432495328800,11.573328857421876,-0.31142181158065796,-1.8906440734863281,0.02530062198638916
1713800432513052200,11.59105224609375,0.42535269260406494,-1.9269747734069824,-0.16385912895202637
1713800432530773200,11.608773193359376,-0.14443203806877136,-1.5912952423095703,0.3075713515281677
1713800432548496600,11.62649658203125,-1.4105336666107178,-0.7712602615356445,0.9968495965003967
1713800432566218800,11.64421875,-2.5075151920318604,-0.25329113006591797,1.2049332857131958
1713800432583940000,11.661940185546875,-2.850409746170044,0.15464210510253906,1.1029126644134521
1713800432601657900,11.679657958984375,-2.213808059692383,0.916783332824707,0.2757520377635956
1713800432619385900,11.6973857421875,-1.4952774047851562,1.4519081115722656,-2.211909055709839
1713800432637102000,11.71510205078125,-0.8201959133148193,2.135800361633301,-4.720014572143555
1713800432654830300,11.732830322265626,-3.421497106552124,3.844655990600586,-3.679069995880127
1713800432672551700,11.7505517578125,-5.195898056030273,3.190964698791504,-1.984058141708374
1713800432690273500,11.7682734375,-3.4525651931762695,1.9988670349121094,-1.649849534034729
1713800432707997200,11.7859970703125,-0.9243549704551697,4.256842613220215,-1.9513522386550903
1713800432725718000,11.803718017578126,0.6601017713546753,4.410346984863281,-2.687180280685425
1713800432743442000,11.82144189453125,0.6570177674293518,1.6219854354858398,-1.9923661947250366
1713800432761161500,11.839161376953125,2.1450891494750977,1.2353410720825195,0.2563852071762085
1713800432778882800,11.8568828125,4.231428146362305,3.9845046997070312,2.6369879245758057
1713800432796608300,11.874608154296874,3.729098320007324,6.617546081542969,1.9874682426452637
1713800432814329900,11.892329833984375,-2.4780232906341553,7.270969390869141,0.6429322957992554
1713800432832050200,11.91005029296875,-4.644463539123535,5.1065168380737305,2.1571433544158936
1713800432849777700,11.927777587890626,-3.2560300827026367,3.276299476623535,3.9124631881713867
1713800432867497700,11.945497802734375,0.6133496761322021,2.6487884521484375,3.6320157051086426
1713800432885219600,11.963219482421875,3.7893896102905273,1.7590007781982422,4.058780193328857
1713800432902941400,11.98094140625,6.642630577087402,0.4421424865722656,3.910742998123169
1713800432920659000,11.998658935546874,7.0652995109558105,-2.0333118438720703,2.1747961044311523
1713800432938381800,12.0163818359375,7.019472599029541,-4.616153717041016,0.0620424747467041
1713800432956108000,12.03410791015625,5.497014045715332,-5.230077743530273,-0.8962633609771729
1713800432973831400,12.05183154296875,2.560422420501709,-4.223381042480469,-0.0019043684005737305
1713800432991552500,12.069552490234376,2.415327548980713,-4.153852939605713,0.9942675828933716
1713800433009275000,12.08727490234375,3.3066229820251465,-5.055934906005859,1.9344274997711182
1713800433026996700,12.104996826171876,3.957709312438965,-6.421479225158691,1.8777533769607544
1713800433044721400,12.122721435546875,1.5991883277893066,-7.4880876541137695,1.5263071060180664
1713800433062441500,12.14044140625,-1.1815471649169922,-7.701961517333984,0.6723063588142395
1713800433080164900,12.158164794921875,-1.500816822052002,-5.118260860443115,-1.094529390335083
1713800433097886000,12.175885986328124,-3.49116849899292,-0.2532520294189453,-3.3397135734558105
1713800433115609300,12.193609375,-7.272055149078369,3.6000595092773438,-3.821596622467041
1713800433133330700,12.21133056640625,-7.939425945281982,6.352156639099121,-0.012079715728759766
1713800433151054000,12.22905419921875,-1.9774365425109863,6.427565574645996,2.048678398132324
1713800433168775200,12.246775146484374,-0.043755531311035156,3.505805015563965,1.7292110919952393
1713800433186498600,12.26449853515625,0.042812347412109375,2.8565292358398438,3.998584508895874
1713800433204221000,12.282220947265625,-1.2698864936828613,5.7416276931762695,5.583210468292236
1713800433221942300,12.2999423828125,-0.5056338310241699,8.593505859375,5.026357173919678
1713800433239660000,12.317659912109375,1.9790759086608887,5.596406936645508,7.10892391204834
1713800433257387800,12.3353876953125,1.8196747303009033,-5.228562355041504,4.507630825042725
1713800433275108600,12.353108642578125,0.5793628692626953,-6.999571800231934,-0.3464190661907196
1713800433292832300,12.370832275390624,3.6458394527435303,1.5100688934326172,-4.409292697906494
1713800433310548700,12.388548828125,4.017932415008545,5.69930362701416,-4.820225715637207
1713800433328275500,12.406275390625,5.467303276062012,6.4694013595581055,-1.527632713317871
1713800433345999000,12.4239990234375,1.033327341079712,2.007267951965332,0.26655542850494385
1713800433363721200,12.44172119140625,-2.602591037750244,-2.4718942642211914,1.1487911939620972
1713800433381442300,12.4594423828125,1.0081311464309692,-3.857954978942871,1.659796953201294
1713800433399164400,12.477164306640624,3.2016749382019043,-3.2600908279418945,2.0608444213867188
1713800433416888000,12.49488818359375,3.241295576095581,-2.885800361633301,2.1026225090026855
1713800433434609000,12.51260888671875,1.812241792678833,-2.714723587036133,2.1311631202697754
1713800433452332500,12.53033251953125,0.5745424628257751,-2.795133113861084,1.7028625011444092
1713800433470054700,12.5480546875,-0.8302686810493469,-2.504398822784424,0.679358720779419
1713800433487775700,12.565775634765625,-0.6281754970550537,-1.459341049194336,-0.22016584873199463
1713800433505499400,12.58349951171875,0.4385295808315277,-1.6263580322265625,-1.615391731262207
1713800433523221200,12.60122119140625,0.4438920021057129,-2.3421497344970703,-2.107578992843628
1713800433540942600,12.618942626953125,0.5879780054092407,-2.8109021186828613,-2.0761072635650635
1713800433558660400,12.636660400390625,1.1019604206085205,-2.1993236541748047,-1.452202558517456
1713800433576388400,12.654388427734375,0.32789576053619385,-0.9355478286743164,-0.753258466720581
1713800433594109700,12.672109619140626,-1.6891717910766602,0.8293724060058594,-0.23538941144943237
1713800433611828000,12.689827880859376,-3.1689114570617676,1.3813695907592773,0.3373291492462158
1713800433629537500,12.70753759765625,-3.6753664016723633,1.470637321472168,0.17407238483428955
1713800433647276300,12.7252763671875,-4.449377059936523,2.020026206970215,-0.8533083200454712
1713800433664987400,12.7429873046875,-3.0058999061584473,2.415297508239746,-2.2973737716674805
1713800433682722800,12.760722900390626,-1.8745769262313843,2.123119354248047,-3.7359888553619385
1713800433700441900,12.77844189453125,-3.650782585144043,2.4682979583740234,-2.9500982761383057
1713800433718167800,12.796167724609376,-3.148723602294922,2.749455451965332,-2.799973487854004
1713800433735887000,12.81388720703125,-0.9522451162338257,5.174674987792969,-3.76121187210083
1713800433753610800,12.83161083984375,-0.30234062671661377,4.496379852294922,-5.281852722167969
1713800433771324400,12.849324462890625,1.8704982995986938,2.6476268768310547,-4.676707744598389
1713800433789044200,12.867044189453125,3.2823500633239746,1.8468246459960938,-1.7443087100982666
1713800433806779400,12.884779296875,3.762038469314575,1.8696956634521484,1.8188788890838623
1713800433824498700,12.902498779296875,3.880556583404541,4.878200531005859,3.4304959774017334
1713800433842223000,12.92022314453125,2.262782096862793,6.758881568908691,1.2877321243286133
1713800433859943200,12.937943115234376,-1.537625789642334,6.0030364990234375,0.32656562328338623
1713800433877661000,12.955660888671876,-3.313415050506592,4.61851692199707,2.8942880630493164
1713800433895388700,12.973388671875,-2.213406562805176,3.2167844772338867,3.931086540222168
1713800433913108500,12.9911083984375,2.009089946746826,1.048680305480957,3.9668641090393066
1713800433930835000,13.0088349609375,7.257176399230957,0.6651220321655273,4.794207572937012
1713800433948553700,13.0265537109375,8.853997230529785,-0.3352689743041992,2.978621482849121
1713800433966277400,13.04427734375,6.493430137634277,-2.457700729370117,0.3474135398864746
1713800433983995100,13.0619951171875,2.7369136810302734,-3.4736480712890625,-1.2557556629180908
1713800434001721000,13.07972119140625,1.2329051494598389,-3.1131086349487305,-1.3317362070083618
1713800434019444500,13.097444580078125,3.525052309036255,-3.5754451751708984,-0.7743397951126099
1713800434037166600,13.11516650390625,4.925048828125,-5.241954803466797,0.5019479990005493
1713800434054887700,13.1328876953125,4.382645606994629,-6.240902900695801,1.9504344463348389
1713800434072610000,13.150610107421874,3.168384313583374,-7.10300350189209,2.5125741958618164
1713800434090333400,13.16833349609375,1.9382038116455078,-7.615899085998535,2.309889078140259
1713800434108055800,13.186055908203125,1.7322168350219727,-7.123763561248779,2.2331926822662354
1713800434125776600,13.203776611328125,0.08766460418701172,-5.838095664978027,0.1512928009033203
1713800434143500000,13.2215,-1.3143806457519531,-2.1805505752563477,-0.6756026744842529
1713800434161222000,13.239221923828126,-3.068492889404297,1.7581892013549805,-1.2419084310531616
1713800434178939400,13.256939453125,-4.892697811126709,6.366426467895508,-3.2534101009368896
1713800434196661200,13.2746611328125,-4.961034774780273,9.204176902770996,-1.8311630487442017
1713800434214389000,13.292388916015625,-3.500096321105957,7.064601898193359,1.1468244791030884
1713800434232110000,13.310110107421876,-6.801185131072998,1.1696662902832031,0.9885558485984802
1713800434249833700,13.327833740234375,-6.028548240661621,-3.1570510864257812,-0.556755006313324
1713800434267555000,13.34555517578125,-2.9182066917419434,-0.969785213470459,0.8202718496322632
1713800434285272300,13.363272216796876,-0.7321109771728516,3.3752222061157227,2.622128486633301
1713800434303000300,13.381000244140624,4.08241081237793,5.972709655761719,4.0279951095581055
1713800434320722400,13.398722412109375,8.77453899383545,7.681638717651367,5.731498718261719
1713800434338443500,13.416443603515624,1.445014476776123,2.798769950866699,3.0913748741149902
1713800434356167000,13.4341669921875,-0.939094066619873,-2.8691673278808594,1.2865924835205078
1713800434373886700,13.45188671875,2.008251190185547,-2.281397819519043,-0.3327803611755371
1713800434391612700,13.46961279296875,5.046763896942139,-0.44224071502685547,-2.9559459686279297
1713800434409332500,13.48733251953125,8.337495803833008,1.8131084442138672,-2.968691825866699
1713800434427055600,13.5050556640625,5.57187032699585,1.847804069519043,-2.31370210647583
1713800434444778000,13.522778076171875,0.5765199661254883,0.1349782943725586,-0.784356951713562
1713800434462499300,13.540499267578125,-0.48189520835876465,-1.5761938095092773,0.3420848846435547
1713800434480222200,13.55822216796875,0.9564155340194702,-2.711379051208496,0.9304221272468567
1713800434497944000,13.575944091796876,1.1012368202209473,-2.9078450202941895,1.421555995941162
1713800434515660800,13.593660888671875,-0.30624473094940186,-2.6097731590270996,0.8157393336296082
1713800434533389000,13.61138916015625,0.48097217082977295,-2.0180253982543945,-0.5292145013809204
1713800434551110100,13.629110107421875,1.0209726095199585,-1.2373361587524414,-0.6603844165802002
1713800434568834000,13.646833984375,0.15934520959854126,-0.9970417022705078,0.22451937198638916
1713800434586554600,13.6645546875,-1.2132080793380737,-1.7395410537719727,0.6122576594352722
1713800434604277200,13.68227734375,-1.8198109865188599,-2.129960536956787,-0.13883709907531738
1713800434622000400,13.70000048828125,-1.0503897666931152,-1.6355009078979492,-1.0537853240966797
1713800434639722200,13.71772216796875,0.278097927570343,-0.9126615524291992,-0.9802630543708801
1713800434657438700,13.735438720703126,-0.6493213176727295,-0.6238956451416016,0.47054117918014526
1713800434675166700,13.753166748046874,-3.0300676822662354,-0.38697147369384766,2.001101016998291
1713800434692888600,13.770888671875,-2.8913936614990234,-0.2274646759033203,1.741849660873413
1713800434710611200,13.788611083984375,-3.954824447631836,1.1536540985107422,-0.3746575117111206
1713800434728332500,13.80633251953125,-2.3796586990356445,2.502838134765625,-2.4995076656341553
1713800434746048300,13.82404833984375,-1.617220401763916,2.049509048461914,-3.9556024074554443
1713800434763778000,13.841778076171876,-3.301492214202881,2.071552276611328,-3.8112261295318604
1713800434781488000,13.859488037109376,-4.066793441772461,3.178783416748047,-4.062128067016602
1713800434799222000,13.877221923828126,-2.1146621704101562,5.251796722412109,-4.705238342285156
1713800434816944000,13.894944091796875,0.6247998476028442,5.338197708129883,-4.422067165374756
1713800434834661000,13.9126611328125,1.8606284856796265,3.653813362121582,-2.8171298503875732
1713800434852389000,13.93038916015625,2.2692296504974365,1.4502906799316406,-0.3974877893924713
1713800434870110500,13.9481103515625,1.1724907159805298,2.4830121994018555,2.793966054916382
1713800434887833600,13.96583349609375,2.4212827682495117,5.765595436096191,2.605217695236206
1713800434905554700,13.9835546875,2.8640918731689453,7.038851737976074,0.9161347150802612
1713800434923276800,14.00127685546875,-0.1519395112991333,6.231305122375488,1.416971206665039
1713800434941000000,14.019,-2.2679615020751953,5.118300437927246,3.0682997703552246
1713800434958717400,14.036717529296874,-0.3689117431640625,3.9087562561035156,3.648242473602295
1713800434976443600,14.054443603515624,5.755840301513672,1.5375289916992188,3.633777618408203
1713800434994166800,14.072166748046875,5.153800964355469,0.031081199645996094,2.5617635250091553
1713800435011888000,14.08988818359375,6.287508487701416,-0.8744325637817383,1.7703945636749268
1713800435029607000,14.10760693359375,4.334958076477051,-2.3753652572631836,0.6765671968460083
1713800435047335400,14.12533544921875,3.6780271530151367,-3.4474258422851562,-0.17174839973449707
1713800435065056300,14.14305615234375,4.364572525024414,-3.805361747741699,-0.5869226455688477
1713800435082777300,14.16077734375,5.275749683380127,-4.994412422180176,-0.26172125339508057
1713800435100497400,14.178497314453125,5.173440933227539,-6.073216915130615,0.8082622289657593
1713800435118225000,14.196224853515625,5.353233337402344,-7.0868024826049805,1.672276496887207
1713800435135943700,14.213943603515625,3.880247116088867,-7.597479343414307,1.997910499572754
1713800435153661200,14.2316611328125,1.965644121170044,-7.916278839111328,1.658393383026123
1713800435171389200,14.24938916015625,0.04488801956176758,-6.793609619140625,0.5676810145378113
1713800435189107500,14.267107421875,-1.2965812683105469,-3.630648612976074,-0.17457079887390137
1713800435206836500,14.28483642578125,-1.5527434349060059,0.08759880065917969,-0.054494500160217285
1713800435224553500,14.302553466796875,-4.665309429168701,5.402378082275391,-0.9697138071060181
1713800435242278100,14.320278076171874,-7.568650245666504,8.571085929870605,-2.6401734352111816
1713800435259995100,14.3379951171875,-4.679303169250488,8.095986366271973,-0.7622817754745483
1713800435277722000,14.35572216796875,-2.577843189239502,3.950242042541504,1.0179376602172852
1713800435295443700,14.373443603515625,-4.1152167320251465,-1.0255928039550781,2.1786904335021973
1713800435313166800,14.391166748046874,-5.7993483543396,1.0736045837402344,2.5765931606292725
1713800435330883000,14.408883056640626,-3.5597639083862305,4.649545669555664,2.4434456825256348
1713800435348610000,14.426610107421874,2.266122817993164,6.542444229125977,2.9102861881256104
1713800435366333400,14.44433349609375,5.522914886474609,5.229413032531738,3.403712749481201
1713800435384055300,14.46205517578125,0.49327611923217773,-2.2956762313842773,2.4280147552490234
1713800435401776600,14.479776611328125,1.969569206237793,-6.886940002441406,2.0340046882629395
1713800435419498800,14.497498779296874,5.274179458618164,-2.1872453689575195,0.902805507183075
1713800435437223000,14.515222900390626,3.364990711212158,4.488132476806641,-2.5259830951690674
1713800435454943700,14.53294384765625,3.328918695449829,5.258185386657715,-3.161381959915161
1713800435472661000,14.550660888671874,3.6678872108459473,2.310185432434082,-1.8695814609527588
1713800435490388700,14.568388671875,2.286001682281494,-0.7394742965698242,-0.3198237419128418
1713800435508109800,14.58610986328125,1.197571039199829,-2.5224099159240723,0.6874854564666748
1713800435525833000,14.6038330078125,2.108295440673828,-3.0165891647338867,1.0638434886932373
1713800435543554300,14.62155419921875,1.5346717834472656,-2.9935107231140137,0.7423420548439026
1713800435561276700,14.639276611328125,0.7176823616027832,-2.799314498901367,0.6837214231491089
1713800435578996000,14.656995849609375,0.6234510540962219,-2.281890392303467,0.8151591420173645
1713800435596722000,14.674721923828125,0.039810895919799805,-2.125185489654541,0.20727264881134033
1713800435614442200,14.692442138671876,-0.3693220615386963,-2.0573644638061523,-0.7611986398696899
1713800435632162800,14.710162841796874,-0.5633678436279297,-1.8307886123657227,-1.1309560537338257
1713800435649887500,14.727887451171876,-0.24351578950881958,-2.5160861015319824,-1.2577705383300781
1713800435667611100,14.745611083984375,-0.14191119372844696,-2.665788173675537,-0.9361904263496399
1713800435685331700,14.763331787109376,-0.7141625881195068,-1.3987083435058594,-0.4204680919647217
1713800435703051000,14.781051025390624,-0.7341830730438232,-0.09664440155029297,-0.44276779890060425
1713800435720775200,14.798775146484376,-1.2736111879348755,0.00228118896484375,-0.3672923445701599
1713800435738500900,14.8165009765625,-1.6798344850540161,0.0064716339111328125,-0.16499297320842743
1713800435756221700,14.8342216796875,-1.9598004817962646,1.2354888916015625,-0.6050891876220703
1713800435773943300,14.851943359375,-1.7580273151397705,2.499077796936035,-2.1959753036499023
1713800435791661000,14.8696611328125,-2.1313042640686035,2.696714401245117,-4.101426601409912
1713800435809388300,14.88738818359375,-3.676074504852295,2.646334648132324,-4.609474182128906
1713800435827109600,14.905109619140624,-4.422533988952637,3.4989795684814453,-5.3983869552612305
1713800435844833000,14.9228330078125,-2.7012267112731934,5.593618392944336,-6.005412578582764
1713800435862553900,14.940553955078125,-0.29899531602859497,5.600377082824707,-6.038565158843994
1713800435880276500,14.9582763671875,1.2880080938339233,4.319912910461426,-3.738300323486328
1713800435897990700,14.97599072265625,2.3257009983062744,1.5441865921020508,-1.0043208599090576
1713800435915721700,14.9937216796875,1.6160473823547363,0.052245140075683594,2.17048978805542
1713800435933442600,15.011442626953125,1.978442907333374,3.0072078704833984,3.060267448425293
1713800435951166500,15.02916650390625,2.133208751678467,6.128637313842773,1.6071381568908691
1713800435968882400,15.04688232421875,-0.05084490776062012,6.505613327026367,0.9344921112060547
1713800435986610700,15.064610595703124,-0.9475734233856201,4.4396162033081055,1.589248538017273
1713800436004331800,15.082331787109375,0.666651725769043,3.043734550476074,2.5228686332702637
1713800436022055000,15.100054931640624,1.0711592435836792,1.7592058181762695,2.0557031631469727
1713800436039776300,15.1177763671875,4.744098663330078,0.5971851348876953,1.4837541580200195
1713800436057500000,15.1355,5.376266956329346,-0.6994695663452148,0.7692252397537231
1713800436075221500,15.153221435546875,4.425167083740234,-2.638791084289551,-0.14044606685638428
1713800436092943000,15.170943115234374,3.7758893966674805,-4.296895980834961,-0.669358491897583
1713800436110660900,15.188660888671874,4.457859516143799,-4.799418926239014,-0.6212685108184814
1713800436128388600,15.206388671875,5.160620212554932,-4.821834564208984,0.1713186502456665
1713800436146109700,15.224109619140625,5.310564994812012,-4.933611869812012,1.2781023979187012
1713800436163832800,15.241832763671875,5.003493309020996,-5.073375701904297,2.3593244552612305
1713800436181553200,15.25955322265625,4.3955607414245605,-5.144199371337891,2.6660289764404297
1713800436199276800,15.27727685546875,3.009101629257202,-4.723108768463135,2.5013625621795654
1713800436216999700,15.294999755859376,1.555295467376709,-4.417220592498779,2.0529322624206543
1713800436234721800,15.3127216796875,-0.11190128326416016,-3.9924564361572266,1.4222025871276855
1713800436252442600,15.330442626953126,-1.853896141052246,-1.7509608268737793,0.9926303029060364
1713800436270166000,15.348166015625,-3.5165653228759766,0.874058723449707,1.1938190460205078
1713800436287887400,15.365887451171876,-5.653528213500977,4.891378402709961,-0.4390302896499634
1713800436305605600,15.383605712890626,-5.546996593475342,8.604742050170898,-2.8041157722473145
1713800436323330300,15.401330322265625,-4.313628196716309,7.883691787719727,-0.3858604431152344
1713800436341056300,15.41905615234375,-5.314430236816406,1.8160228729248047,0.025447368621826172
1713800436358775800,15.43677587890625,-5.0937933921813965,-3.0797367095947266,-0.5276890397071838
1713800436376499500,15.45449951171875,-3.9750218391418457,-0.4949483871459961,-1.1096223592758179
1713800436394219500,15.472219482421876,-0.20581912994384766,2.9907522201538086,-0.017266780138015747
1713800436411945000,15.489945068359376,4.924446105957031,5.967260360717773,3.9744467735290527
1713800436429660400,15.507660400390625,4.802962779998779,5.190338134765625,6.433333396911621
1713800436447388000,15.525387939453125,0.6250216960906982,-0.9882497787475586,2.400301694869995
1713800436465109200,15.543109130859374,1.5264396667480469,-3.1100192070007324,1.0388758182525635
1713800436482832600,15.56083251953125,4.003324508666992,-0.22267913818359375,-0.6280131936073303
1713800436500553700,15.5785537109375,5.667181015014648,2.9112863540649414,-2.575767993927002
1713800436518276000,15.596276123046875,5.902637958526611,3.308608055114746,-3.2649147510528564
1713800436535999000,15.6139990234375,2.56382155418396,0.3745880126953125,-2.5533652305603027
1713800436553721300,15.631721435546876,1.9170246124267578,-1.9634661674499512,-0.9120340347290039
1713800436571442700,15.649442626953125,2.083645820617676,-3.62650203704834,0.8531227111816406
1713800436589165800,15.667165771484376,1.4892455339431763,-3.5965442657470703,2.098349094390869
1713800436606882000,15.684882080078125,-0.24956536293029785,-2.8322200775146484,2.019111156463623
1713800436624609000,15.702609130859376,-0.5637825727462769,-1.9917230606079102,0.9198135137557983
1713800436642333000,15.7203330078125,-0.8738154768943787,-1.125697135925293,-0.034128546714782715
1713800436660054800,15.7380546875,-1.1347017288208008,-0.8145866394042969,-0.08480715751647949
1713800436677771000,15.75577099609375,-1.25764799118042,-1.8531494140625,-0.3533400893211365
1713800436695498000,15.773498046875,0.13094282150268555,-2.3595447540283203,-0.5709551572799683
1713800436713222100,15.79122216796875,1.112858772277832,-2.372361183166504,-0.7957770228385925
1713800436730942500,15.8089423828125,0.9366934299468994,-1.5114173889160156,-0.7409549355506897
1713800436748660500,15.826660400390624,-0.20001989603042603,0.050307273864746094,-0.8702613115310669
1713800436766386700,15.84438671875,-1.5925754308700562,1.9917373657226562,-0.7671476006507874
1713800436784110300,15.8621103515625,-2.4429078102111816,2.446017265319824,-0.7124263048171997
1713800436801832000,15.87983203125,-3.856778383255005,2.282872200012207,-1.2534350156784058
1713800436819553500,15.897553466796875,-4.022763729095459,1.9913759231567383,-2.7801640033721924
1713800436837275600,15.915275634765624,-2.214113235473633,1.9693946838378906,-4.939151287078857
1713800436854998800,15.932998779296875,-2.5999562740325928,2.3563060760498047,-5.259608268737793
1713800436872721000,15.950720947265625,-4.383169174194336,1.9544916152954102,-4.215120792388916
1713800436890442500,15.9684423828125,-3.455012321472168,3.033374786376953,-4.095921516418457
1713800436908165400,15.986165283203125,-2.700505495071411,4.499123573303223,-4.325728893280029
1713800436925886700,16.00388671875,-1.7907135486602783,3.3172130584716797,-3.657325267791748
1713800436943609900,16.02160986328125,0.5620441436767578,2.255640983581543,-1.7126927375793457
1713800436961320400,16.039320556640625,2.7776644229888916,2.057314872741699,-1.0694847106933594
1713800436979051500,16.057051513671876,5.720109462738037,4.437743186950684,-0.46695390343666077
1713800436996775700,16.074775634765626,5.615200996398926,6.52376651763916,-0.12977978587150574
1713800437014497500,16.09249755859375,-1.742388129234314,7.0267181396484375,1.2038300037384033
1713800437032222200,16.11022216796875,-2.2731058597564697,4.918370246887207,2.891226053237915
1713800437049941800,16.127941650390625,3.598233699798584,2.8078622817993164,4.317381381988525
1713800437067658500,16.145658447265625,0.7121530771255493,1.5159177780151367,4.228682994842529
1713800437085385000,16.163385009765626,2.8872764110565186,-0.15015888214111328,3.753004550933838
1713800437103109000,16.181109130859376,4.754001617431641,-1.623006820678711,3.049164056777954
1713800437120832000,16.19883203125,6.325374126434326,-1.7518510818481445,1.6223185062408447
1713800437138553000,16.216552978515626,6.107293605804443,-2.8299875259399414,0.17425751686096191
1713800437156275500,16.234275390625,5.759469985961914,-3.4659080505371094,-0.7375526428222656
1713800437173998600,16.25199853515625,4.961308002471924,-4.2542524337768555,-1.1096826791763306
1713800437191721000,16.269720947265625,4.799436092376709,-4.806504249572754,-0.908181369304657
1713800437209442000,16.287442138671874,4.472652435302734,-4.883542060852051,0.16909724473953247
1713800437227165200,16.305165283203124,4.119908809661865,-5.5612030029296875,1.2621479034423828
1713800437244886500,16.322886474609376,2.7248129844665527,-5.818471908569336,2.2165331840515137
1713800437262609700,16.340609619140626,-0.019316673278808594,-6.183306694030762,2.5777838230133057
1713800437280326100,16.358326171875,-2.4147653579711914,-5.484315395355225,1.4071929454803467
1713800437298051000,16.376051025390623,-3.1724863052368164,-2.384157180786133,0.30443233251571655
1713800437315778000,16.393778076171873,-2.417210578918457,0.5159492492675781,-0.21122053265571594
1713800437333497300,16.411497314453126,-4.228407859802246,3.381960868835449,-0.6811144351959229
1713800437351221200,16.42922119140625,-5.188714027404785,9.301012992858887,-1.1852412223815918
1713800437368937500,16.4469375,-4.705172538757324,8.982595443725586,0.6259007453918457
1713800437386659800,16.464659912109376,-7.882706642150879,2.006938934326172,1.7012468576431274
1713800437404387300,16.48238720703125,-7.004279136657715,-0.36994075775146484,0.5847997665405273
1713800437422108400,16.5001083984375,-0.5908932685852051,1.2014446258544922,0.5022653937339783
1713800437439831600,16.51783154296875,3.6666343212127686,5.85521125793457,1.6388839483261108
1713800437457553200,16.53555322265625,4.845433712005615,6.025975227355957,4.3883137702941895
1713800437475275000,16.55327490234375,2.612870216369629,-0.8959627151489258,2.5101659297943115
1713800437492998400,16.570998291015623,3.3787989616394043,-3.409198760986328,0.6374866962432861
1713800437510720500,16.588720458984376,2.594672679901123,0.28660106658935547,-1.794849157333374
1713800437528441900,16.60644189453125,5.8200507164001465,3.1954269409179688,-3.552468776702881
1713800437546165000,16.6241650390625,5.2298665046691895,4.28676700592041,-3.6936964988708496
1713800437563886300,16.64188623046875,2.175009250640869,1.4492483139038086,-2.8403732776641846
1713800437581609500,16.659609375,1.7275497913360596,-1.0086555480957031,-1.4224505424499512
1713800437599330300,16.677330322265625,2.4789412021636963,-2.89670467376709,-0.24991536140441895
1713800437617054000,16.695053955078127,2.3720529079437256,-3.957489013671875,0.7952274680137634
1713800437634775000,16.712775146484375,1.1503335237503052,-3.4077072143554688,1.3602943420410156
1713800437652493600,16.73049365234375,0.939410924911499,-2.945406436920166,0.6414252519607544
1713800437670220000,16.748219970703126,-1.0531697273254395,-3.149198532104492,-0.8089262247085571
1713800437687942000,16.76594189453125,-1.1670830249786377,-1.984579086303711,-0.5564379096031189
1713800437705659400,16.783659423828126,-0.5728871822357178,-0.8988456726074219,0.09324267506599426
1713800437723387000,16.801386962890625,-0.7611735463142395,-0.6219367980957031,0.5116019248962402
1713800437741107000,16.81910693359375,-0.5798366069793701,-1.1904287338256836,-0.05006733536720276
1713800437758833000,16.8368330078125,-0.11684304475784302,-1.5556869506835938,-0.2742520570755005
1713800437776552700,16.854552734375,-0.8432753086090088,-1.6213417053222656,-0.5139845609664917
1713800437794274800,16.87227490234375,-2.150271415710449,-1.075709342956543,-0.8775050640106201
1713800437811997000,16.889996826171874,-1.60648512840271,-0.24493694305419922,-1.9063385725021362
1713800437829721000,16.90772119140625,-1.0358721017837524,1.2116222381591797,-2.749889373779297
1713800437847441400,16.92544140625,-1.6775169372558594,2.723012924194336,-3.236513137817383
1713800437865164500,16.94316455078125,-2.456275224685669,2.7621660232543945,-3.5781452655792236
1713800437882885600,16.9608857421875,-2.566586971282959,3.236562728881836,-3.349386215209961
1713800437900609000,16.978609130859375,-4.289090633392334,2.494683265686035,-3.0972580909729004
1713800437918329900,16.996329833984376,-3.5838804244995117,2.9910364151000977,-4.4698944091796875
1713800437936053200,17.01405322265625,-1.6507620811462402,5.383636474609375,-5.5683488845825195
1713800437953769700,17.031769775390625,-0.05487245321273804,3.1281518936157227,-6.377655029296875
1713800437971497700,17.049497802734376,2.1369149684906006,2.04709529876709,-5.617092132568359
1713800437989219300,17.06721923828125,2.733161449432373,2.2603673934936523,-3.727487325668335
1713800438006941400,17.08494140625,3.631197929382324,3.4365758895874023,-1.9376459121704102
1713800438024658400,17.102658447265625,2.2213640213012695,5.430854797363281,-1.431905746459961
1713800438042385400,17.120385498046875,-0.6369214057922363,5.581860542297363,-0.37671735882759094
1713800438060108800,17.13810888671875,-0.24995505809783936,4.526309967041016,1.7181259393692017
1713800438077831000,17.155830810546874,-0.7291017770767212,3.5965423583984375,2.9442014694213867
1713800438095552000,17.173552001953126,1.0442841053009033,2.442831039428711,2.8903889656066895
1713800438113274400,17.1912744140625,2.368475914001465,0.6285734176635742,2.4872641563415527
1713800438130997200,17.208997314453125,4.315677165985107,-0.5611438751220703,1.9942548274993896
1713800438148715000,17.226715087890625,5.13037109375,-0.47737884521484375,1.1775808334350586
1713800438166439200,17.244439208984375,4.679454803466797,-1.7043051719665527,-0.007386684417724609
1713800438184164400,17.262164306640624,5.093135833740234,-3.050710678100586,-0.5954646468162537
1713800438201885000,17.279885009765625,5.583988666534424,-4.169247627258301,-0.41250699758529663
1713800438219608600,17.297608642578126,6.058591842651367,-4.80220890045166,0.5434767603874207
1713800438237334800,17.315334716796876,5.936858177185059,-4.8258771896362305,2.002051591873169
1713800438255052800,17.333052734375,4.69816780090332,-5.166786193847656,3.1149868965148926
1713800438272774000,17.35077392578125,2.550426959991455,-5.886321067810059,3.545213222503662
1713800438290497500,17.36849755859375,1.0962762832641602,-6.300987243652344,2.6726813316345215
1713800438308219000,17.386218994140624,-0.49530792236328125,-4.249316692352295,1.9394642114639282
1713800438325936000,17.40393603515625,-0.7229318618774414,-1.1466073989868164,1.488689661026001
1713800438343658200,17.421658203125,-3.314969539642334,1.4405193328857422,-0.1770593523979187
1713800438361386000,17.439385986328126,-6.889291763305664,2.742650032043457,-3.6855199337005615
1713800438379107300,17.457107421875,-5.3529276847839355,4.315503120422363,-3.62436842918396
1713800438396830500,17.47483056640625,-3.5316858291625977,3.692129135131836,-2.177745819091797
1713800438414550300,17.49255029296875,-3.966203212738037,0.7888975143432617,-1.148679494857788
1713800438432274700,17.510274658203127,-5.1420979499816895,1.5806093215942383,-0.970844030380249
1713800438449995500,17.52799560546875,-3.6125617027282715,6.8994140625,0.4946795701980591
1713800438467720700,17.545720703125,-1.2699899673461914,10.761882781982422,3.539659023284912
1713800438485437200,17.563437255859377,-0.6830415725708008,3.195906639099121,5.671672821044922
1713800438503166500,17.58116650390625,1.901611328125,-6.953486442565918,5.35871696472168
1713800438520885000,17.598885009765624,2.855283260345459,-5.64300537109375,1.5579650402069092
1713800438538607900,17.61660791015625,2.0362777709960938,1.8158855438232422,-5.760368347167969
1713800438556329200,17.6343291015625,7.886371612548828,4.683963775634766,-5.143766403198242
1713800438574052400,17.65205224609375,5.236947536468506,6.859016418457031,-2.5929081439971924
1713800438591774000,17.66977392578125,0.9212000370025635,3.5356063842773438,-1.5838050842285156
1713800438609496600,17.68749658203125,0.74749755859375,-0.2785806655883789,-0.22666580975055695
1713800438627214000,17.705214111328125,2.4580187797546387,-2.7609152793884277,1.1931850910186768
1713800438644940300,17.722940185546875,3.1146419048309326,-4.5526838302612305,1.7062181234359741
1713800438662657500,17.740657470703123,1.9567819833755493,-4.4298319816589355,1.8078672885894775
1713800438680385500,17.758385498046874,0.0134505033493042,-3.1383819580078125,0.30199238657951355
1713800438698106600,17.776106689453126,-0.5709807872772217,-2.134018898010254,-0.9477970600128174
1713800438715828700,17.793828857421875,-0.799974262714386,-2.0308103561401367,-1.4325908422470093
1713800438733552600,17.811552734375,-0.6008272171020508,-2.2988381385803223,-0.9839140176773071
1713800438751273500,17.8292734375,-1.0685644149780273,-2.3168115615844727,-0.8750112652778625
1713800438768992800,17.84699267578125,-2.180556535720825,-1.8002128601074219,-1.5107284784317017
1713800438786718700,17.86471875,-1.7459965944290161,-1.443394660949707,-1.463654637336731
1713800438804438800,17.882438720703124,-0.12852370738983154,-1.5064411163330078,-1.1476688385009766
1713800438822164500,17.90016455078125,0.40999436378479004,-1.4416389465332031,-0.5153275728225708
1713800438839884300,17.91788427734375,-0.4902021884918213,-0.2538280487060547,0.3456217646598816
1713800438857607400,17.935607421875,-1.2611085176467896,1.5870351791381836,0.9459927082061768
1713800438875328800,17.953328857421877,-2.0484554767608643,2.619145393371582,0.5043128132820129
1713800438893052200,17.97105224609375,-2.6239585876464844,2.4383811950683594,-1.0656317472457886
1713800438910773200,17.988773193359375,-3.0824337005615234,1.7862415313720703,-3.6362884044647217
1713800438928496400,18.006496337890624,-4.490207672119141,2.032301902770996,-6.202368259429932
1713800438946218500,18.024218505859373,-2.625014066696167,4.049118995666504,-7.616550922393799
1713800438963940000,18.041940185546874,-2.2096455097198486,4.997710227966309,-6.214338302612305
1713800438981657600,18.05965771484375,-0.3437068462371826,2.6409149169921875,-5.317589282989502
1713800438999380700,18.077380615234375,2.8262104988098145,2.4198713302612305,-3.9675166606903076
1713800439017106400,18.0951064453125,2.373526096343994,3.866549491882324,-1.0528221130371094
1713800439034829800,18.112829833984375,4.639894485473633,6.618097305297852,1.8654639720916748
1713800439052551200,18.13055126953125,4.159848690032959,8.017908096313477,3.250957727432251
1713800439070273300,18.148273193359376,0.00021123886108398438,7.072173118591309,3.125701665878296
1713800439087995100,18.1659951171875,-3.552074432373047,5.489815711975098,3.3499984741210938
1713800439105719800,18.1837197265625,0.6094720363616943,3.352458953857422,3.131760597229004
1713800439123439900,18.20143994140625,0.8403973579406738,1.8758296966552734,2.337009906768799
1713800439141163300,18.219163330078125,6.030732154846191,-0.19206905364990234,1.579092025756836
1713800439158879500,18.23687939453125,7.698798179626465,-0.7722234725952148,1.2401922941207886
1713800439176607500,18.254607421875,5.687095642089844,-2.4279518127441406,0.15283924341201782
1713800439194328800,18.272328857421876,4.2529144287109375,-3.676023483276367,-0.4932565689086914
1713800439212051700,18.2900517578125,3.790357828140259,-5.012349605560303,-0.5361266136169434
1713800439229773600,18.307773681640626,4.354152202606201,-6.300818920135498,-0.25098633766174316
1713800439247496200,18.32549609375,4.811550140380859,-6.73525333404541,0.9184641242027283
1713800439265218600,18.343218505859376,4.73788595199585,-7.111930847167969,1.7042181491851807
1713800439282940200,18.360940185546873,3.495180368423462,-7.6846137046813965,1.715982437133789
1713800439300657400,18.378657470703125,1.5733888149261475,-7.836435794830322,1.6333080530166626
1713800439318377700,18.396377685546874,0.2694125175476074,-6.500600337982178,1.1732314825057983
1713800439336106800,18.414106689453124,-0.947784423828125,-3.506227493286133,0.2988447844982147
1713800439353817900,18.43181787109375,-1.9378857612609863,-1.2236247062683105,-0.31293177604675293
1713800439371546400,18.44954638671875,-4.428194999694824,3.0044031143188477,-2.354628324508667
1713800439389273300,18.4672734375,-6.885132312774658,11.148470878601074,-5.529237747192383
1713800439406996700,18.484996826171876,-3.952828884124756,10.816391944885254,-2.742849826812744
1713800439424718800,18.50271875,-5.127514362335205,2.487886428833008,-0.17200104892253876
1713800439442440000,18.52043994140625,-7.066287040710449,-2.2565908432006836,-0.3625238835811615
1713800439460163300,18.538163330078124,-6.37645959854126,3.6109066009521484,-0.10379926860332489
1713800439477884700,18.555884765625,1.11765718460083,9.562773704528809,0.33873337507247925
1713800439495608000,18.573608154296874,8.305183410644531,7.344417572021484,5.340189456939697
1713800439513329200,18.5913291015625,4.641780853271484,-2.8833656311035156,8.04418659210205
1713800439531052300,18.60905224609375,3.3136963844299316,-8.989546775817871,6.716415882110596
1713800439548773600,18.626773681640625,-0.4217805862426758,-4.475658893585205,2.5240378379821777
1713800439566497000,18.6444970703125,1.7549166679382324,4.927890777587891,-2.429445266723633
1713800439584219400,18.662219482421875,6.067065238952637,7.059770584106445,-1.2312800884246826
1713800439601932500,18.6799326171875,5.140069007873535,5.214393615722656,-1.4568989276885986
1713800439619661000,18.6976611328125,-0.2573423385620117,0.6279964447021484,-2.332472324371338
1713800439637385700,18.7153857421875,0.025377988815307617,-2.464193344116211,-2.5843100547790527
1713800439655107300,18.733107421875,2.032291889190674,-3.7293996810913086,-1.019395351409912
1713800439672825300,18.750825439453124,3.031775951385498,-4.224143028259277,0.11169230937957764
1713800439690550300,18.76855029296875,0.5042818784713745,-4.250212669372559,0.4669720530509949
1713800439708275200,18.786275146484375,-0.3407803773880005,-3.3821611404418945,-0.027363896369934082
1713800439725997300,18.803997314453124,-0.931093692779541,-2.226055145263672,-0.6678379774093628
1713800439743722500,18.821722412109374,-0.2641356289386749,-1.7494783401489258,-0.7321223616600037
1713800439761439500,18.839439453125,-0.6203554272651672,-1.6177177429199219,0.19455546140670776
1713800439779165400,18.85716552734375,-0.48330801725387573,-2.0933971405029297,0.5914855599403381
1713800439796885200,18.87488525390625,-0.9281817674636841,-2.6099729537963867,0.15483075380325317
1713800439814607600,18.892607666015625,-0.30502766370773315,-2.1979169845581055,0.0060974061489105225
1713800439832331000,18.9103310546875,-0.26763665676116943,-0.7885589599609375,0.37686580419540405
1713800439850053000,18.92805322265625,-1.7622824907302856,0.38648319244384766,0.3783377408981323
1713800439867774200,18.945774169921876,-3.762779951095581,0.7838516235351562,-0.4480701982975006
1713800439885497900,18.963497802734373,-3.9563302993774414,2.2305784225463867,-2.111802339553833
1713800439903219700,18.9812197265625,-3.548964500427246,3.5528955459594727,-3.511445999145508
1713800439920941000,18.998941162109375,-3.7171950340270996,4.2303876876831055,-4.332152843475342
1713800439938659300,19.016659423828123,-5.414952278137207,4.002453804016113,-4.486239910125732
1713800439956386800,19.03438671875,-4.4930524826049805,4.260994911193848,-5.03328275680542
1713800439974103000,19.05210302734375,-0.9868537187576294,5.747518539428711,-4.641852855682373
1713800439991831300,19.069831298828124,0.39431262016296387,3.685000419616699,-4.494994163513184
1713800440009552600,19.087552734375,1.29360830783844,1.8518648147583008,-2.983030319213867
1713800440027274800,19.105274658203125,4.713181972503662,3.451260566711426,-0.5816713571548462
1713800440044993300,19.1229931640625,7.328007698059082,6.725155830383301,-0.7522135972976685
1713800440062719200,19.14071923828125,0.21335595846176147,8.843290328979492,-0.7428507804870605
1713800440080443000,19.15844287109375,-2.908219337463379,7.476670265197754,1.6132467985153198
1713800440098165000,19.1761650390625,0.5282108783721924,4.964323997497559,4.084980010986328
1713800440115886000,19.193885986328127,3.1220741271972656,3.4708051681518555,5.936624050140381
1713800440133600500,19.2116005859375,1.0122008323669434,2.5357866287231445,5.667315483093262
1713800440151320000,19.229320068359375,2.3434574604034424,-0.02470111846923828,4.095569133758545
1713800440169049300,19.24704931640625,3.8541765213012695,-1.1921586990356445,2.9304211139678955
1713800440186775600,19.264775634765623,3.9841437339782715,-3.316835403442383,0.7555394172668457
1713800440204497400,19.282497314453124,5.32877254486084,-4.702951908111572,-0.6221749782562256
1713800440222222000,19.30022216796875,5.900588035583496,-6.713029861450195,-1.6583155393600464
1713800440239942100,19.317942138671874,6.032196044921875,-7.945825576782227,-1.2912338972091675
1713800440257660000,19.335659912109374,6.680109024047852,-7.328921318054199,0.3624054789543152
1713800440275388000,19.353387939453125,6.366337776184082,-7.408946514129639,1.534353256225586
1713800440293108700,19.371108642578125,4.155712604522705,-7.762644290924072,2.6434364318847656
1713800440310832600,19.38883251953125,0.6228508949279785,-7.428407192230225,3.0419859886169434
1713800440328553500,19.406553466796876,-3.0153422355651855,-4.8744354248046875,1.6100519895553589
1713800440346271200,19.424271240234376,-4.104948997497559,-0.5184621810913086,-0.12777632474899292
1713800440363999200,19.441999267578126,-2.446094512939453,3.9114246368408203,-2.074922800064087
1713800440381721600,19.4597216796875,-2.398519992828369,6.91737174987793,-0.00781308114528656
1713800440399442700,19.477442626953124,-6.724778652191162,5.641033172607422,0.31644222140312195
1713800440417166300,19.495166259765625,-7.585076332092285,2.942808151245117,-0.7514147758483887
1713800440434871000,19.51287109375,-2.344662666320801,-0.30626869201660156,0.4902127981185913
1713800440452612000,19.530612060546876,-2.7014527320861816,3.8832263946533203,2.324666976928711
1713800440470331000,19.548330810546876,-2.0170693397521973,12.973793983459473,0.6037161350250244
1713800440488055600,19.5660556640625,3.0149848461151123,11.631495475769043,3.9630331993103027
1713800440505776600,19.583776611328126,4.86984920501709,-3.0629701614379883,4.55053186416626
1713800440523500000,19.6015,5.003150463104248,-10.401215553283691,5.0619215965271
1713800440541222100,19.61922216796875,2.0007214546203613,-3.811814308166504,0.3674736022949219
1713800440558940000,19.63693994140625,3.49185848236084,5.8950653076171875,-2.743389368057251
1713800440576661000,19.654660888671874,5.684633731842041,8.72925090789795,-1.7107466459274292
1713800440594389200,19.67238916015625,4.054256916046143,5.325518608093262,-2.3460042476654053
1713800440612110300,19.6901103515625,1.5104987621307373,-0.16489028930664062,-1.5376232862472534
1713800440629834000,19.707833984375,1.694578766822815,-3.3865556716918945,-0.6508694887161255
1713800440647550200,19.72555029296875,2.277895450592041,-4.262017250061035,-1.141916275024414
1713800440665277400,19.74327734375,2.5426127910614014,-4.1258225440979,-1.6175241470336914
1713800440683000600,19.76100048828125,0.948723316192627,-4.1480326652526855,-1.4562132358551025
1713800440700723200,19.77872314453125,-1.1971445083618164,-3.9839649200439453,-0.4694898724555969
1713800440718442200,19.796442138671875,-0.7039719820022583,-3.2206339836120605,-0.3261581063270569
1713800440736168200,19.814168212890625,-0.8513299226760864,-2.685112953186035,-0.31952181458473206
1713800440753888800,19.831888671875,-0.286466509103775,-1.7592182159423828,0.3012179136276245
1713800440771613700,19.84961376953125,-0.6872484087944031,-1.653519630432129,0.24150677025318146
1713800440789330400,19.867330322265627,-1.9930505752563477,-1.7081689834594727,-0.4639408588409424
1713800440807060000,19.88506005859375,-1.58982253074646,-1.0137243270874023,-0.7610824704170227
1713800440824778000,19.902778076171874,-1.2724392414093018,-0.15415668487548828,-0.8320719003677368
1713800440842501600,19.920501708984375,-2.849069356918335,0.9284496307373047,-0.48576468229293823
1713800440860222700,19.93822265625,-4.405888557434082,1.9422187805175781,-0.17731446027755737
1713800440877945900,19.95594580078125,-4.6393327713012695,2.134004592895508,-1.2403428554534912
1713800440895662300,19.973662353515625,-4.04895544052124,2.5903549194335938,-3.6366400718688965
1713800440913390600,19.991390625,-3.9102320671081543,4.042734146118164,-5.378012657165527
1713800440931112000,20.00911181640625,-4.558804512023926,4.946722030639648,-5.4272918701171875
1713800440948831000,20.0268310546875,-3.3266260623931885,4.6272125244140625,-5.636664390563965
1713800440966556400,20.044556396484374,-1.865454077720642,5.3084917068481445,-5.328173637390137
1713800440984279000,20.062279052734375,0.8659782409667969,4.023303985595703,-5.032134056091309
1713800441002002200,20.080002197265625,4.360723495483398,2.1558074951171875,-4.693049907684326
1713800441019720000,20.097719970703125,4.695067882537842,2.3435182571411133,-1.8769969940185547
1713800441037444400,20.1154443359375,5.106590270996094,5.387007713317871,1.3991676568984985
1713800441055170300,20.13317041015625,2.2361326217651367,8.027640342712402,2.453857898712158
1713800441072890000,20.15089013671875,-3.0595016479492188,8.149541854858398,2.7540645599365234
1713800441090614000,20.168614013671874,-4.975225448608398,5.048885345458984,3.84309983253479
1713800441108333600,20.18633349609375,1.6657193899154663,1.9641704559326172,3.3432388305664062
1713800441126059500,20.2040595703125,3.0961360931396484,0.7936897277832031,4.255016326904297
1713800441143779800,20.22177978515625,4.749967098236084,0.15053653717041016,3.401789903640747
1713800441161503000,20.2395029296875,6.681628227233887,-0.10923480987548828,2.235161781311035
1713800441179223300,20.257223388671875,5.491583824157715,-2.091381549835205,0.6818115711212158
1713800441196948200,20.2749482421875,3.525472402572632,-3.9501099586486816,-0.042395710945129395
1713800441214664000,20.292663818359376,4.03992223739624,-5.234234809875488,-0.05218148231506348
1713800441232392400,20.310392333984375,5.802182197570801,-6.546775817871094,0.16382360458374023
1713800441250113000,20.328113037109375,5.6031293869018555,-7.4209089279174805,0.35110247135162354
1713800441267836700,20.345836669921876,5.345070838928223,-7.288674354553223,1.0437613725662231
1713800441285555000,20.363554931640625,4.218204021453857,-7.3304901123046875,1.5305553674697876
1713800441314358000,20.39235791015625,0.4905400276184082,-7.267457962036133,1.6951217651367188
1713800441332070400,20.4100703125,-2.54862117767334,-3.714174747467041,0.6045713424682617
1713800441349804000,20.427803955078126,-5.657076358795166,2.2110986709594727,0.14537641406059265
1713800441367525600,20.445525634765627,-9.321949005126953,6.211882591247559,-1.353318214416504
1713800441385248000,20.463248046875,-6.99743127822876,9.303909301757812,-0.40818798542022705
1713800441402970400,20.480970458984373,-2.1125283241271973,7.339454650878906,2.2100675106048584
1713800441420693800,20.49869384765625,-4.4815545082092285,0.774571418762207,1.0504893064498901
1713800441438415000,20.5164150390625,-7.293338298797607,-2.06121826171875,-0.7940847873687744
1713800441456137200,20.53413720703125,-4.095205783843994,5.269679069519043,-0.9956323504447937
1713800441473859300,20.551859375,2.966954469680786,11.03761100769043,0.8091402649879456
1713800441491583000,20.5695830078125,7.735737323760986,8.102904319763184,6.168538570404053
1713800441509304000,20.587303955078124,3.3991081714630127,-4.074759006500244,7.195903301239014
1713800441527026000,20.60502587890625,0.17014217376708984,-6.506468296051025,3.774149179458618
1713800441544749000,20.6227490234375,-0.6712684631347656,1.6255607604980469,-2.885244846343994
1713800441562467600,20.640467529296874,9.053495407104492,4.502475738525391,-5.204349040985107
1713800441580193300,20.658193359375,9.599784851074219,6.2756147384643555,-4.413431644439697
1713800441597911000,20.6759111328125,3.1905899047851562,2.1807403564453125,-3.7984108924865723
1713800441615638000,20.693637939453126,1.1261882781982422,-2.9543380737304688,-1.7067211866378784
1713800441633361200,20.711361083984375,1.9299088716506958,-4.989437103271484,1.1624771356582642
1713800441651082500,20.72908251953125,2.3146092891693115,-5.412477970123291,2.391979455947876
1713800441668804900,20.746804931640625,0.7822867631912231,-3.713134288787842,2.710426092147827
1713800441686527000,20.76452685546875,-0.7541648149490356,-2.9444446563720703,1.1106376647949219
1713800441704250400,20.78225048828125,0.21442604064941406,-2.561849594116211,-0.6440752744674683
1713800441721971700,20.7999716796875,-1.8207342624664307,-1.652531623840332,-1.0919744968414307
1713800441739694000,20.817694091796874,-0.4249636232852936,-2.1281356811523438,-1.1694958209991455
1713800441757416200,20.835416259765626,0.2668178081512451,-2.595099449157715,-0.9828651547431946
1713800441775139600,20.8531396484375,0.9387578368186951,-1.717423439025879,-0.8213305473327637
1713800441792860700,20.870860595703125,0.03148519992828369,-0.8170175552368164,-0.9711625576019287
1713800441810583000,20.8885830078125,-1.544108271598816,-0.6258077621459961,-0.5655817985534668
1713800441828305400,20.906305419921875,-2.6079020500183105,-0.39501476287841797,1.1133055686950684
1713800441846028000,20.924028076171876,-4.793086051940918,0.5043373107910156,2.4597675800323486
1713800441863750400,20.94175048828125,-5.891117572784424,1.7321796417236328,0.03875046968460083
1713800441881468200,20.95946826171875,-3.472041606903076,2.395343780517578,-4.242021560668945
1713800441899189800,20.977189697265626,-1.1360541582107544,3.3763036727905273,-6.7410993576049805
1713800441916917800,20.994917724609376,-3.191514492034912,3.3558826446533203,-6.108969211578369
1713800441934639000,21.01263916015625,-3.920990467071533,3.35134220123291,-4.955795764923096
1713800441952360700,21.030360595703126,-1.633222222328186,6.299921035766602,-4.409535884857178
1713800441970084000,21.048083984375,0.05317962169647217,5.348383903503418,-4.3438239097595215
1713800441987806500,21.065806396484376,3.2111704349517822,2.6426544189453125,-3.2827255725860596
1713800442005528800,21.08352880859375,4.4514617919921875,2.2684192657470703,0.10444954037666321
1713800442023250700,21.101250732421875,4.523613452911377,5.099757194519043,2.095782995223999
1713800442040972800,21.118972900390624,-0.668840229511261,8.68165111541748,2.214049816131592
1713800442058696200,21.1366962890625,-2.422905921936035,8.157504081726074,1.7929621934890747
1713800442076417500,21.15441748046875,-1.26708984375,5.917951583862305,2.6668572425842285
1713800442094139600,21.1721396484375,5.834961414337158,3.5479660034179688,3.1227073669433594
1713800442111862000,21.189862060546876,1.1645574569702148,2.4557981491088867,3.4200987815856934
1713800442129585400,21.20758544921875,3.49493145942688,0.7239856719970703,2.9269301891326904
1713800442147306500,21.225306396484374,4.3199663162231445,-1.1154727935791016,1.8965997695922852
1713800442165028400,21.2430283203125,3.9335756301879883,-3.9259567260742188,0.6671518087387085
1713800442182751500,21.26075146484375,3.994772434234619,-5.958195686340332,-0.1265413761138916
1713800442200469800,21.2784697265625,4.665814399719238,-6.422496795654297,0.12221014499664307
1713800442218195500,21.296195556640626,5.164548397064209,-7.201176166534424,0.6151797771453857
1713800442235917600,21.31391748046875,6.144636154174805,-7.379188060760498,1.6783583164215088
1713800442253640200,21.33164013671875,6.181824684143066,-6.848064422607422,2.1577329635620117
1713800442271358700,21.349358642578125,5.069725513458252,-6.780777931213379,1.8237113952636719
1713800442289084200,21.367084228515626,2.396717071533203,-7.254075050354004,1.7590769529342651
1713800442306803200,21.38480322265625,-0.22923755645751953,-6.633767604827881,1.4852194786071777
1713800442324529400,21.402529296875,-2.543455123901367,-3.0766000747680664,0.9275668859481812
1713800442342251800,21.420251708984374,-5.197952747344971,2.499662399291992,0.04674440622329712
1713800442359974000,21.437973876953127,-7.167078971862793,7.5434465408325195,-2.99606990814209
1713800442377696500,21.455696533203124,-5.115691184997559,9.317893028259277,-1.7950375080108643
1713800442395419000,21.4734189453125,-3.7261862754821777,7.2085771560668945,0.733375608921051
1713800442413141800,21.491141845703126,-6.583035469055176,1.1012582778930664,0.6655968427658081
1713800442430862800,21.50886279296875,-6.255917072296143,-4.144991874694824,0.1802641749382019
1713800442448585000,21.5265849609375,-4.405509948730469,-5.120577812194824,0.7673712968826294
1713800442466307600,21.5443076171875,-4.582291603088379,1.6951360702514648,1.5883779525756836
1713800442484030000,21.562030029296874,1.904728889465332,5.401500701904297,0.9467132687568665
1713800442501752600,21.579752685546875,10.161558151245117,8.6300687789917,4.465917587280273
1713800442519469800,21.5974697265625,8.28377914428711,9.721549987792969,5.1764020919799805
1713800442537196300,21.6151962890625,-4.523439407348633,-4.601725101470947,4.089702129364014
1713800442554919700,21.632919677734375,-0.41480398178100586,-6.217324733734131,2.929476022720337
1713800442572636400,21.650636474609374,4.719825267791748,0.3753814697265625,-1.5254931449890137
1713800442590363400,21.66836328125,10.233896255493164,5.116927146911621,-4.321109771728516
1713800442608085800,21.686085693359374,9.980521202087402,5.303553581237793,-3.9036436080932617
1713800442625809000,21.703808837890627,-0.21069741249084473,-0.24967670440673828,-1.8654569387435913
1713800442643530200,21.7215302734375,-2.5605952739715576,-4.038036346435547,0.06262457370758057
1713800442661251800,21.739251953125,1.7785701751708984,-4.250115394592285,1.7456355094909668
1713800442678975200,21.756975341796874,1.1250098943710327,-4.1234307289123535,1.7283574342727661
1713800442696692000,21.77469189453125,-0.01547253131866455,-3.817232131958008,1.2130982875823975
1713800442714421500,21.79242138671875,-1.1623274087905884,-2.741034507751465,0.5911674499511719
1713800442732141600,21.8101416015625,-1.0186396837234497,-1.9101791381835938,-0.37527894973754883
1713800442749864000,21.827864013671874,0.40641796588897705,-1.6178512573242188,-0.8533352613449097
1713800442767587300,21.84558740234375,1.2432926893234253,-2.355475425720215,-1.0515508651733398
1713800442785308400,21.863308349609376,1.3643125295639038,-2.5794339179992676,-0.9955697655677795
1713800442827396600,21.905396728515626,-3.9969735145568848,0.4027366638183594,-0.011384740471839905
1713800442845120000,21.9231201171875,-5.3451385498046875,0.1877603530883789,-0.046957019716501236
1713800442862841000,21.940841064453124,-4.732114791870117,1.4723615646362305,-0.8174454569816589
1713800442880564500,21.958564453125,-3.839195728302002,2.460939407348633,-2.683928966522217
1713800442898285800,21.976285888671875,-1.0947825908660889,2.4277162551879883,-5.077308654785156
1713800442916009000,21.994009033203124,-2.757826089859009,3.216754913330078,-4.970958709716797
1713800442933730600,22.01173046875,-4.967132568359375,3.4777050018310547,-3.70137095451355
1713800442951453700,22.02945361328125,-3.0673928260803223,5.020938873291016,-3.6917881965637207
1713800442969170000,22.047169921875,-0.4690816402435303,6.292647361755371,-3.721297264099121
1713800442986898200,22.064898193359376,0.5544850826263428,5.173060417175293,-2.6639411449432373
1713800443004618800,22.08261865234375,2.034001588821411,2.7635498046875,-0.3500267267227173
1713800443022344700,22.1003447265625,3.1912317276000977,2.344585418701172,2.588951587677002
1713800443040058000,22.11805810546875,1.3815865516662598,5.250711441040039,3.028134346008301
1713800443057786000,22.1357861328125,-1.4990696907043457,7.345002174377441,1.1376280784606934
1713800443075509800,22.153509765625,-1.2551649808883667,6.085178375244141,1.3489632606506348
1713800443093230800,22.17123095703125,3.0643744468688965,4.196138381958008,2.7737584114074707
1713800443110954000,22.1889541015625,0.8522461652755737,3.8380117416381836,3.4080119132995605
1713800443128670700,22.206670654296875,1.954477071762085,1.3428115844726562,2.7386796474456787
1713800443146398700,22.224398681640626,4.642986297607422,0.2116689682006836,2.3676204681396484
1713800443164121000,22.24212109375,4.749871253967285,-1.5547661781311035,1.6897642612457275
1713800443181842400,22.259842529296876,4.281191825866699,-3.9143295288085938,1.0509262084960938
1713800443199565600,22.277565673828125,4.647730827331543,-5.132145881652832,0.7397505044937134
