time,seconds_elapsed,z,y,x
1713800421020121600,0.09812158203125,0.009162978269159794,-0.01572977937757969,0.02626720629632473
1713800421037829600,0.11582958984375,0.005955935921519995,0.0032070425804704428,0.058337632566690445
1713800421055561000,0.13356103515625,-0.00733038317412138,0.03848451003432274,0.04489859566092491
1713800421073279500,0.151279541015625,-0.01725694350898266,0.014966198243200779,0.001527163083665073
1713800421090994000,0.168993896484375,-0.03237585723400116,-0.013286318629980087,-0.02871066704392433
1713800421108731100,0.186731201171875,-0.015118914656341076,-0.010231993161141872,-0.02076941914856434
1713800421126451000,0.204450927734375,0.0010690141934901476,0.014813481830060482,0.006261368747800589
1713800421144173600,0.222173583984375,0.0022907445672899485,0.00855211354792118,0.032528575509786606
1713800421161894100,0.23989404296875,-0.0022907445672899485,0.021838432177901268,0.03787364438176155
1713800421179616500,0.257616455078125,-0.0074830991216003895,0.003359758760780096,0.043676864355802536
1713800421197340700,0.275340576171875,-0.015577063895761967,0.017562376335263252,0.027947084978222847
1713800421215062000,0.29306201171875,-0.011759156361222267,0.0065668015740811825,0.01863138936460018
1713800421232783600,0.31078369140625,-0.014813481830060482,0.0022907445672899485,0.011301007121801376
1713800421250508500,0.328508544921875,-0.010231993161141872,-0.02076941914856434,0.003359758760780096
1713800421268228900,0.346228759765625,-0.004428773187100887,-0.04001167416572571,0.01038470957428217
1713800421285953300,0.363953369140625,-0.0064140851609408855,-0.038179077208042145,0.014355333521962166
1713800421303669500,0.38166943359375,-0.005955935921519995,0.001527163083665073,0.010995574295520782
1713800421321396700,0.399396728515625,-0.004581489134579897,0.026572637259960175,0.004734205547720194
1713800421339119000,0.417119140625,-0.010842857882380486,-0.00366519158706069,-0.003512475173920393
1713800421356841700,0.434841796875,-0.016493361443281174,-0.03878994286060333,-0.013591751456260681
1713800421374562600,0.4525625,-0.012522737495601177,-0.039706241339445114,-0.016951510682702065
1713800421392287200,0.470287353515625,-0.011301007121801376,-0.01817324012517929,-0.01572977937757969
1713800421410008800,0.4880087890625,-0.007788531947880983,-0.007788531947880983,-0.005803219974040985
1713800421427731000,0.50573095703125,-0.011759156361222267,-0.0029016099870204926,-0.007024950347840786
1713800421445453300,0.523453369140625,-0.01664607785642147,-0.005497787147760391,-0.01237002108246088
1713800421463176200,0.54117626953125,-0.012828170321881771,-0.01542434748262167,-0.0064140851609408855
1713800421480886500,0.558886474609375,-0.0065668015740811825,-0.003817907767370343,-0.0010690141934901476
1713800421498616300,0.5766162109375,0.0019853119738399982,0.009468411095440388,-0.0006108652451075613
1713800421516347100,0.59434716796875,-0.00427605677396059,-0.00015271631127689034,0
1713800421534064600,0.612064697265625,-0.010690141469240189,-0.024129176512360573,0.001679879380390048
1713800421551787800,0.629787841796875,-0.015118914656341076,-0.03451388701796532,0.005803219974040985
1713800421569492700,0.64749267578125,-0.016493361443281174,-0.014355333521962166,0.005803219974040985
1713800421587230700,0.665230712890625,-0.009926560334861279,0.001527163083665073,0.015271631069481373
1713800421604956000,0.682955810546875,-0.001679879380390048,-0.003054326167330146,0.01542434748262167
1713800421622672100,0.700672119140625,-0.003817907767370343,-0.015118914656341076,-0.01160643994808197
1713800421640400100,0.718400146484375,0.001679879380390048,0,-0.0429132841527462
1713800421658111500,0.736111572265625,-0.0074830991216003895,-0.0029016099870204926,-0.039095375686883926
1713800421675844000,0.753843994140625,-0.01466076634824276,-0.029626963660120964,-0.0006108652451075613
1713800421693566200,0.771566162109375,-0.010690141469240189,-0.02519819140434265,0.017409659922122955
1713800421711288800,0.789288818359375,0.00809396430850029,0.029626963660120964,-0.005955935921519995
1713800421729023200,0.807023193359375,0.010690141469240189,0.02871066704392433,-0.030085112899541855
1713800421746728700,0.824728759765625,-0.009010262787342072,-0.035582900047302246,-0.01863138936460018
1713800421764455400,0.842455322265625,-0.03176499158143997,-0.06734789162874222,0.005345070734620094
1713800421782178800,0.8601787109375,-0.02168571576476097,-0.02321287989616394,0.022449297830462456
1713800421799900400,0.877900390625,0.0022907445672899485,0.028405234217643738,0.020005837082862854
1713800421817622800,0.895622802734375,0.015577063895761967,0.033597588539123535,-0.006719517521560192
1713800421835344100,0.91334423828125,0.010842857882380486,0.0029016099870204926,-0.02321287989616394
1713800421853068800,0.93106884765625,-0.0013744467869400978,-0.02535090781748295,0.0022907445672899485
1713800421870789600,0.94878955078125,0.0024434609804302454,-0.020616702735424042,0.03833179548382759
1713800421888512500,0.966512451171875,0.005955935921519995,0.018020525574684143,0.03375030308961868
1713800421906221600,0.9842216796875,-0.0029016099870204926,0.01878410577774048,-0.004428773187100887
1713800421923958300,1.001958251953125,-0.010995574295520782,-0.020922135561704636,-0.02474004216492176
1713800421941674200,1.01967431640625,-0.014355333521962166,-0.039706241339445114,-0.003817907767370343
1713800421959401700,1.037401611328125,-0.004734205547720194,-0.0024434609804302454,0.027488935738801956
1713800421977124400,1.055124267578125,0.003512475173920393,0.03588833287358284,0.031154127791523933
1713800421994846200,1.07284619140625,-0.003512475173920393,0.013439035043120384,0.0064140851609408855
1713800422012568300,1.090568359375,-0.01466076634824276,-0.01710422709584236,-0.01878410577774048
1713800422030291200,1.108291259765625,-0.014813481830060482,-0.016035212203860283,-0.019089538604021072
1713800422047998000,1.125998046875,-0.0074830991216003895,-0.008399397134780884,0.012675453908741474
1713800422065739000,1.143739013671875,-0.0006108652451075613,0.015118914656341076,0.034666601568460464
1713800422083457500,1.16145751953125,-0.001832595793530345,-0.005039638374000788,0.02321287989616394
1713800422101180400,1.179180419921875,-0.012522737495601177,-0.021074850112199783,-0.009010262787342072
1713800422118898000,1.19689794921875,-0.009162978269159794,-0.015118914656341076,-0.020311269909143448
1713800422136626700,1.214626708984375,-0.0006108652451075613,-0.008857546374201775,0.0010690141934901476
1713800422154346800,1.2323466796875,0.008704829961061478,0.011759156361222267,0.01771509274840355
1713800422172071200,1.2500712890625,0.007788531947880983,0.022907447069883347,0.007024950347840786
1713800422189792300,1.267792236328125,-0.0024434609804302454,-0.024434609338641167,-0.003054326167330146
1713800422207513600,1.285513671875,-0.017409659922122955,-0.04138612002134323,-0.00733038317412138
1713800422225236200,1.303236328125,-0.008857546374201775,-0.014202617108821869,-0.004734205547720194
1713800422242960100,1.320960205078125,0.008857546374201775,0.026114489883184433,-0.01725694350898266
1713800422260676600,1.338676513671875,0.005955935921519995,0.04764748737215996,-0.051312681287527084
1713800422278404000,1.356404052734375,0.0022907445672899485,0.028405234217643738,-0.05421429127454758
1713800422296125700,1.374125732421875,0.00855211354792118,-0.011301007121801376,-0.0024434609804302454
1713800422313839400,1.39183935546875,0.007024950347840786,-0.02733621932566166,0.04382958263158798
1713800422331572200,1.409572265625,0.0019853119738399982,-0.02672535367310047,0.03726277872920036
1713800422349292000,1.4272919921875,0.004581489134579897,-0.027947084978222847,0.00015271631127689034
1713800422367015200,1.44501513671875,-0.0039706239476799965,-0.08964447677135468,-0.05910121276974678
1713800422384737500,1.462737548828125,-0.022907447069883347,-0.0754418596625328,-0.0705549344420433
1713800422402460200,1.480460205078125,-0.009162978269159794,-0.021991148591041565,-0.028557950630784035
1713800422420178200,1.49817822265625,0.0019853119738399982,0.023060163483023643,0.03420845419168472
1713800422437904400,1.515904296875,0.008399397134780884,0.02229658141732216,0.056352317333221436
1713800422455627000,1.533626953125,0.00855211354792118,-0.0024434609804302454,0.02932153269648552
1713800422473349000,1.55134912109375,-0.0007635815418325365,-0.015118914656341076,-0.009468411095440388
1713800422491072300,1.569072265625,-0.013133603148162365,-0.01664607785642147,-0.027641652151942253
1713800422508793000,1.58679296875,-0.003512475173920393,-0.00015271631127689034,-0.01863138936460018
1713800422526517500,1.604517578125,0.00931569468230009,0.0354301854968071,-0.005497787147760391
1713800422544238000,1.622238037109375,0.013897184282541275,0.013744467869400978,0.00931569468230009
1713800422561962800,1.639962646484375,-0.0022907445672899485,-0.038026362657547,0.018478672951459885
1713800422579678500,1.657678466796875,-0.020311269909143448,-0.07223481684923172,0.015577063895761967
1713800422597405400,1.675405517578125,-0.021074850112199783,-0.021532999351620674,-0.009162978269159794
1713800422615129900,1.6931298828125,-0.0012217304902151227,0.020005837082862854,-0.026419922709465027
1713800422632851000,1.710850830078125,0.018020525574684143,0.028405234217643738,-0.02122756652534008
1713800422650572800,1.72857275390625,0.022143865004181862,0.017562376335263252,-0.0003054326225537807
1713800422668295200,1.746295166015625,0.009468411095440388,-0.013439035043120384,0.023518312722444534
1713800422686017300,1.764017333984375,0.0024434609804302454,-0.02871066704392433,0.03222314268350601
1713800422703733500,1.7817333984375,-0.006872233934700489,-0.012828170321881771,0.004734205547720194
1713800422721462000,1.7994619140625,-0.003817907767370343,0.0013744467869400978,-0.03329215571284294
1713800422739184400,1.817184326171875,0.0013744467869400978,-0.003512475173920393,-0.047800205647945404
1713800422756906200,1.83490625,0.012522737495601177,-0.016798794269561768,-0.01618792861700058
1713800422774627800,1.8526279296875,0.024892758578062057,0.02122756652534008,0.020616702735424042
1713800422792351200,1.870351318359375,0.022602014243602753,0.031154127791523933,0.036651913076639175
1713800422810072600,1.888072509765625,0.00427605677396059,0.001832595793530345,0.025503624230623245
1713800422827797200,1.90579736328125,-0.009162978269159794,-0.03573561832308769,-0.0025961773935705423
1713800422845518800,1.923518798828125,-0.014813481830060482,-0.04688390716910362,-0.018478672951459885
1713800422863239200,1.9412392578125,0.0024434609804302454,-0.0024434609804302454,-0.01038470957428217
1713800422880959200,1.958959228515625,0.017409659922122955,0.035124752670526505,0.011301007121801376
1713800422898681300,1.976681396484375,0.02367102913558483,0.02519819140434265,0.02825251780450344
1713800422916397000,1.99439697265625,0.01817324012517929,0.013286318629980087,0.018478672951459885
1713800422934129400,2.01212939453125,0.005955935921519995,-0.0009162978967651725,-0.01160643994808197
1713800422951850800,2.029850830078125,-0.003054326167330146,-0.016493361443281174,-0.02519819140434265
1713800422969576000,2.047575927734375,-0.007635815534740686,-0.020616702735424042,-0.01664607785642147
1713800422987297500,2.065297607421875,-0.00045814894838258624,-0.0074830991216003895,0.005650503560900688
1713800423005019000,2.083018798828125,0.016798794269561768,0.008246680721640587,0.026572637259960175
1713800423022737000,2.10073681640625,0.020463986322283745,0.005955935921519995,0.018478672951459885
1713800423040464100,2.118464111328125,0.013439035043120384,-0.007941247895359993,-0.00855211354792118
1713800423058186500,2.1361865234375,-0.004734205547720194,-0.03145955875515938,-0.02382374368607998
1713800423075908400,2.153908447265625,-0.011301007121801376,-0.030237829312682152,-0.010079276748001575
1713800423093619500,2.171619384765625,-0.0032070425804704428,-0.01466076634824276,0.01863138936460018
1713800423111352000,2.18935205078125,0.0074830991216003895,0.015882495790719986,0.032070424407720566
1713800423129076700,2.20707666015625,0.008399397134780884,0.02321287989616394,0.01542434748262167
1713800423146797600,2.224797607421875,0.0010690141934901476,0.014049900695681572,-0.018020525574684143
1713800423164519400,2.24251953125,-0.00931569468230009,-0.021532999351620674,-0.024587325751781464
1713800423182231800,2.260231689453125,-0.016951510682702065,-0.032070424407720566,0.001679879380390048
1713800423199966500,2.277966552734375,-0.010995574295520782,-0.005192354787141085,0.02519819140434265
1713800423217682400,2.295682373046875,-0.0019853119738399982,0.03145955875515938,0.02015855349600315
1713800423235409700,2.31340966796875,0.0029016099870204926,0.019547687843441963,-0.006719517521560192
1713800423253131300,2.33113134765625,-0.001527163083665073,-0.012980886735022068,-0.03130684420466423
1713800423270844000,2.348843994140625,-0.00733038317412138,-0.01725694350898266,-0.025503624230623245
1713800423288574500,2.366574462890625,-0.010842857882380486,-0.022143865004181862,0.013133603148162365
1713800423306300200,2.384300048828125,-0.010842857882380486,-0.00809396430850029,0.029016099870204926
1713800423324021200,2.402021240234375,0.005039638374000788,0.016340645030140877,0.007024950347840786
1713800423341743600,2.41974365234375,0.01038470957428217,0.040164388716220856,-0.027030786499381065
1713800423359465200,2.43746533203125,0,0.0029016099870204926,-0.030695978552103043
1713800423377185300,2.455185302734375,-0.01924225501716137,-0.05146539583802223,-0.00931569468230009
1713800423394908200,2.472908203125,-0.025656340643763542,-0.06352998316287994,0.008246680721640587
1713800423412632800,2.4906328125,-0.00931569468230009,-0.0006108652451075613,0.013286318629980087
1713800423430355200,2.508355224609375,0.004886921960860491,0.037110064178705215,0.00855211354792118
1713800423448077000,2.5260771484375,0.011453723534941673,0.039095375686883926,-0.005497787147760391
1713800423465795000,2.543795166015625,0.00855211354792118,0.012522737495601177,-0.018020525574684143
1713800423483520800,2.561520751953125,-0.0009162978967651725,-0.014202617108821869,-0.01237002108246088
1713800423501244200,2.579244140625,0.0003054326225537807,-0.003054326167330146,-0.004734205547720194
1713800423518963500,2.59696337890625,0.00045814894838258624,-0.0010690141934901476,0.007941247895359993
1713800423536684300,2.614684326171875,-0.00015271631127689034,0.0012217304902151227,-0.0003054326225537807
1713800423554410500,2.632410400390625,0.001832595793530345,0.01725694350898266,-0.0065668015740811825
1713800423572134100,2.650134033203125,0.00931569468230009,0.028557950630784035,-0.00733038317412138
1713800423589855700,2.667855712890625,0.009773843921720982,0.020463986322283745,-0.0029016099870204926
1713800423607577900,2.685577880859375,0.0065668015740811825,-0.001679879380390048,0.006261368747800589
1713800423625301000,2.703301025390625,0,-0.04764748737215996,0.025503624230623245
1713800423643022300,2.721022216796875,-0.004123340360820293,-0.055283304303884506,0.040622539818286896
1713800423660745000,2.738744873046875,0.003512475173920393,-0.012217304669320583,0.0377209298312664
1713800423678467000,2.756467041015625,0.019547687843441963,0.02367102913558483,0.01863138936460018
1713800423696190000,2.77418994140625,0.020616702735424042,0.02275473065674305,-0.003054326167330146
1713800423713911600,2.79191162109375,0.007788531947880983,0.00015271631127689034,-0.019394971430301666
1713800423731635000,2.809635009765625,-0.0022907445672899485,-0.02825251780450344,-0.009621127508580685
1713800423749347000,2.82734716796875,-0.00045814894838258624,-0.031154127791523933,0.025961773470044136
1713800423767070200,2.8450703125,0.004123340360820293,-0.005497787147760391,0.040164388716220856
1713800423784805400,2.862805419921875,0.008857546374201775,0.018020525574684143,0.020311269909143448
1713800423802523400,2.8805234375,0.0065668015740811825,0.008857546374201775,-0.00733038317412138
1713800423820244700,2.89824462890625,-0.0024434609804302454,-0.030237829312682152,-0.013133603148162365
1713800423837973800,2.915973876953125,-0.005650503560900688,-0.03298672288656235,0.00931569468230009
1713800423855683600,2.93368359375,0.0027488935738801956,-0.0039706239476799965,0.024129176512360573
1713800423873414100,2.9514140625,0.008857546374201775,0.015118914656341076,0.014813481830060482
1713800423891135200,2.96913525390625,0.006108652334660292,0.0013744467869400978,0.00015271631127689034
1713800423908853500,2.986853515625,0.003054326167330146,-0.016798794269561768,0.003359758760780096
1713800423926579000,3.004578857421875,0.0010690141934901476,-0.010690141469240189,0.016798794269561768
1713800423944301800,3.0223017578125,0.004123340360820293,-0.0007635815418325365,0.02474004216492176
1713800423962024200,3.040024169921875,-0.007177666760981083,-0.005955935921519995,0.02168571576476097
1713800423979746800,3.057746826171875,-0.009010262787342072,-0.027488935738801956,0.018936822190880775
1713800423997468400,3.075468505859375,-0.014813481830060482,-0.020616702735424042,0.009162978269159794
1713800424015179800,3.0931796875,-0.005803219974040985,-0.0027488935738801956,0.0013744467869400978
1713800424032913400,3.110913330078125,0.00733038317412138,0.003359758760780096,-0.006108652334660292
1713800424050636500,3.128636474609375,0.007941247895359993,-0.003359758760780096,-0.007788531947880983
1713800424068353000,3.14635302734375,0.009926560334861279,-0.005345070734620094,-0.009010262787342072
1713800424086080500,3.16408056640625,-0.003817907767370343,-0.01710422709584236,-0.00427605677396059
1713800424103802600,3.181802734375,-0.024434609338641167,-0.06062837690114975,0.009468411095440388
1713800424121525500,3.199525390625,-0.025503624230623245,-0.054367005825042725,0.019853120669722557
1713800424139245800,3.217245849609375,0.006108652334660292,0.018936822190880775,0.0006108652451075613
1713800424156969200,3.23496923828125,0.02275473065674305,0.055283304303884506,-0.02932153269648552
1713800424174688800,3.252688720703125,0.013744467869400978,0.0012217304902151227,-0.024892758578062057
1713800424192414500,3.27041455078125,-0.014966198243200779,-0.05971207842230797,0.006261368747800589
1713800424210136300,3.28813623046875,-0.025045474991202354,-0.05543602257966995,0.02580905705690384
1713800424227846000,3.305845947265625,-0.014202617108821869,0.0007635815418325365,0.019547687843441963
1713800424245571600,3.323571533203125,0.010537425056099892,0.029626963660120964,-0.0027488935738801956
1713800424263303700,3.3413037109375,0.013897184282541275,0.02535090781748295,-0.02886338345706463
1713800424281025500,3.359025634765625,0.00931569468230009,-0.003054326167330146,-0.02672535367310047
1713800424298748400,3.37674853515625,0.01191187184303999,-0.003054326167330146,0.003359758760780096
1713800424316464600,3.394464599609375,0.014355333521962166,0.00809396430850029,0.02474004216492176
1713800424334189800,3.41218994140625,0.008399397134780884,0.01771509274840355,0.016798794269561768
1713800424351917600,3.42991748046875,-0.00931569468230009,-0.022143865004181862,-0.0006108652451075613
1713800424369637600,3.4476376953125,-0.01618792861700058,-0.05100724846124649,-0.010690141469240189
1713800424387359700,3.46535986328125,-0.0024434609804302454,-0.008246680721640587,-0.0019853119738399982
1713800424405066800,3.483066650390625,0.008704829961061478,0.03695734590291977,0.0019853119738399982
1713800424422804000,3.500803955078125,0.01160643994808197,0.03955352306365967,-0.0019853119738399982
1713800424440521700,3.518521728515625,-0.0009162978967651725,-0.004123340360820293,-0.014049900695681572
1713800424458248000,3.536248046875,-0.011453723534941673,-0.04199698567390442,-0.0064140851609408855
1713800424475972400,3.553972412109375,-0.010231993161141872,-0.028405234217643738,0.011759156361222267
1713800424493681700,3.571681640625,-0.0013744467869400978,-0.0007635815418325365,0.012217304669320583
1713800424511414000,3.5894140625,0.004886921960860491,0.019547687843441963,-0.012980886735022068
1713800424529138200,3.60713818359375,0.008399397134780884,0.005955935921519995,-0.03222314268350601
1713800424546858200,3.624858154296875,0.006261368747800589,-0.009010262787342072,-0.02519819140434265
1713800424564587500,3.64258740234375,0.0010690141934901476,0.00015271631127689034,-0.005039638374000788
1713800424582291700,3.660291748046875,0.005039638374000788,0.029932396486401558,0.00045814894838258624
1713800424600027100,3.678027099609375,0.003817907767370343,0.03878994286060333,-0.02122756652534008
1713800424617749800,3.695749755859375,-0.005192354787141085,0.004734205547720194,-0.037110064178705215
1713800424635471600,3.7134716796875,-0.0032070425804704428,-0.03084869496524334,-0.03420845419168472
1713800424653193700,3.73119384765625,0.013591751456260681,-0.05406157299876213,-0.022143865004181862
1713800424670916600,3.74891650390625,0.031612277030944824,-0.024129176512360573,-0.0012217304902151227
1713800424688639500,3.766639404296875,0.0429132841527462,0.0731511116027832,0.016493361443281174
1713800424706360300,3.7843603515625,0.03039054572582245,0.08491026610136032,0.021991148591041565
1713800424724083700,3.802083740234375,-0.010079276748001575,0.022602014243602753,0.001527163083665073
1713800424741800700,3.81980078125,-0.04764748737215996,-0.0064140851609408855,-0.02626720629632473
1713800424759528200,3.837528076171875,-0.038637228310108185,0.013744467869400978,0.0012217304902151227
1713800424777248800,3.855248779296875,-0.015118914656341076,0.04596760869026184,0.007635815534740686
1713800424794973700,3.8729736328125,0.00427605677396059,0.054367005825042725,0.015271631069481373
1713800424812690000,3.89068994140625,0.014202617108821869,0.03145955875515938,0.041233405470848083
1713800424830416100,3.908416015625,0.006261368747800589,-0.013591751456260681,0.07131851464509964
1713800424848140500,3.926140625,-0.012828170321881771,0,0.07528914511203766
1713800424865861600,3.943861572265625,-0.0065668015740811825,0.014355333521962166,0.0679587572813034
1713800424883568400,3.961568359375,0.0019853119738399982,0.04703662544488907,0.054825156927108765
1713800424901303000,3.979302978515625,0.005497787147760391,0.04382958263158798,0.06475171446800232
1713800424919028000,3.997028076171875,0.013133603148162365,0.044287730008363724,0.06902777403593063
1713800424936751000,4.014751220703125,0.013591751456260681,0.04703662544488907,0.04459316283464432
1713800424954472200,4.03247216796875,0.030237829312682152,0.042760565876960754,-0.010690141469240189
1713800424972185300,4.050185302734375,0.048258353024721146,0.03634648025035858,-0.06459899991750717
1713800424989917200,4.067917236328125,0.015577063895761967,-0.007177666760981083,-0.08200865983963013
1713800425007641000,4.08564111328125,-0.018936822190880775,-0.0806342139840126,-0.0607810914516449
1713800425025362700,4.10336279296875,-0.03222314268350601,-0.07727445662021637,-0.06414084881544113
1713800425043084800,4.121084716796875,-0.01725694350898266,-0.020005837082862854,-0.09254608303308487
1713800425060806400,4.138806396484375,0.014966198243200779,0.050243668258190155,-0.16249015927314758
1713800425078526500,4.1565263671875,0.02580905705690384,0.044745877385139465,-0.2684752643108368
1713800425096253200,4.174253173828125,-0.01237002108246088,-0.035582900047302246,-0.3627012372016907
1713800425113970700,4.191970703125,-0.0019853119738399982,-0.06459899991750717,-0.41859540343284607
1713800425131691000,4.20969091796875,0.004886921960860491,0.01725694350898266,-0.3937026560306549
1713800425149407700,4.22740771484375,0.021991148591041565,0.06520986557006836,-0.26969701051712036
1713800425167140400,4.245140380859375,0.0039706239476799965,-0.02229658141732216,-0.11911872029304504
1713800425184864500,4.262864501953125,-0.002138028386980295,-0.09728029370307922,-0.03436116874217987
1713800425202584000,4.280583984375,-0.004123340360820293,-0.08414668589830399,-0.009010262787342072
1713800425220309000,4.29830908203125,0.02076941914856434,0.00931569468230009,-0.031001411378383636
1713800425238029800,4.31602978515625,0.019853120669722557,0.024434609338641167,-0.05604688450694084
1713800425255752400,4.33375244140625,0.02015855349600315,-0.031154127791523933,-0.04612032696604729
1713800425273474600,4.351474609375,0.01878410577774048,-0.06398813426494598,0.0074830991216003895
1713800425291197200,4.369197265625,0.032070424407720566,-0.04077525436878204,0.055894169956445694
1713800425308914400,4.38691455078125,0.0377209298312664,-0.027488935738801956,0.06001751124858856
1713800425326629600,4.404629638671875,0.03878994286060333,-0.030543262138962746,0.01191187184303999
1713800425344363500,4.422363525390625,0.03191770985722542,-0.005650503560900688,-0.0429132841527462
1713800425362086100,4.440086181640625,0.02474004216492176,-0.00045814894838258624,-0.052839845418930054
1713800425379805700,4.4578056640625,0.02382374368607998,-0.001679879380390048,-0.018325956538319588
1713800425397534000,4.475533935546875,0.023518312722444534,-0.009926560334861279,0.03451388701796532
1713800425415246600,4.49324658203125,0.03084869496524334,-0.00809396430850029,0.07498370856046677
1713800425432977000,4.510976806640625,0.02977968007326126,-0.02367102913558483,0.08384125679731369
1713800425450695400,4.5286953125,0.022907447069883347,-0.038637228310108185,0.06627888232469559
1713800425468416000,4.546416015625,0.009773843921720982,-0.033597588539123535,0.03634648025035858
1713800425486156000,4.564156005859375,0.009162978269159794,-0.03451388701796532,0.03741549700498581
1713800425503863800,4.58186376953125,0.010842857882380486,-0.020463986322283745,0.0682641938328743
1713800425521588000,4.599587890625,0.015118914656341076,-0.013286318629980087,0.1059851199388504
1713800425539309300,4.617309326171875,0.012217304669320583,-0.029168816283345222,0.12797626852989197
1713800425557029600,4.635029541015625,0.010842857882380486,-0.04138612002134323,0.14217889308929443
1713800425574754000,4.652754150390625,0.0074830991216003895,-0.02932153269648552,0.14767667651176453
1713800425592474400,4.670474365234375,0.003359758760780096,-0.0019853119738399982,0.12339477986097336
1713800425610201000,4.688201171875,0.003817907767370343,-0.018478672951459885,0.08414668589830399
1713800425627918800,4.7059189453125,0.010079276748001575,-0.007635815534740686,0.03680463135242462
1713800425645643800,4.723643798828125,0.02229658141732216,0.00427605677396059,0.013286318629980087
1713800425663365000,4.741365234375,0.021838432177901268,0.04917465150356293,0.01618792861700058
1713800425681087700,4.759087646484375,0.04581489413976669,0.07696902006864548,0.02626720629632473
1713800425698809600,4.7768095703125,0.029626963660120964,0.062460970133543015,0.016340645030140877
1713800425716530000,4.794530029296875,0.022602014243602753,0.047189339995384216,-0.012217304669320583
1713800425734252800,4.812252685546875,0.014049900695681572,0.06948592513799667,-0.04214970022439957
1713800425751975200,4.82997509765625,0.03405573591589928,0.09697485715150833,-0.026572637259960175
1713800425769697500,4.847697509765625,0.05115996301174164,0.08445212244987488,0.0861319974064827
1713800425787416600,4.86541650390625,0.048105638474226,0.005345070734620094,0.09422596544027328
1713800425805143600,4.8831435546875,0.06780604273080826,-0.023060163483023643,-0.09529497474431992
1713800425822866200,4.9008662109375,0.024892758578062057,-0.15653422474861145,-0.37950003147125244
1713800425840587800,4.918587890625,0.01725694350898266,-0.17837265133857727,-0.5755877494812012
1713800425858311000,4.936310791015625,0.03390302136540413,0.0027488935738801956,-0.5714644193649292
1713800425876032500,4.954032470703125,-0.003054326167330146,0.043218716979026794,-0.3501785099506378
1713800425893755400,4.97175537109375,-0.012064588256180286,-0.024892758578062057,-0.022907447069883347
1713800425911477200,4.989477294921875,0.014049900695681572,-0.02672535367310047,0.2047925740480423
1713800425929199400,5.007199462890625,0.005345070734620094,0.014049900695681572,0.2125810980796814
1713800425946919200,5.024919189453125,-0.03145955875515938,0.009468411095440388,0.07254024595022202
1713800425964647700,5.042647705078125,-0.0734565481543541,-0.0659734457731247,-0.06490442901849747
1713800425982366500,5.060366455078125,-0.10491610318422318,-0.08979719132184982,-0.10476338863372803
1713800426000089000,5.078089111328125,-0.09743300825357437,-0.015577063895761967,-0.04612032696604729
1713800426017816600,5.095816650390625,-0.07024950534105301,0.07513642311096191,0.032528575509786606
1713800426035530000,5.113530029296875,-0.051312681287527084,0.06948592513799667,0.06261368840932846
1713800426053258000,5.131258056640625,-0.052228979766368866,0.020616702735424042,0.04886921867728233
1713800426070979000,5.14897900390625,-0.06169738993048668,0.03222314268350601,0.019547687843441963
1713800426088696000,5.166696044921875,-0.07009678333997726,0.031154127791523933,-0.003512475173920393
1713800426106422500,5.184422607421875,-0.07620543986558914,-0.022449297830462456,-0.009468411095440388
1713800426124144400,5.202144287109375,-0.07513642311096191,-0.04184427112340927,-0.013439035043120384
1713800426141867500,5.219867431640625,-0.05009094998240471,-0.03130684420466423,-0.004123340360820293
1713800426159589000,5.237589111328125,-0.035124752670526505,0.004581489134579897,0.00733038317412138
1713800426177310700,5.255310791015625,-0.021380282938480377,0.012828170321881771,0.01466076634824276
1713800426195034400,5.273034423828125,-0.027947084978222847,-0.005955935921519995,0.01771509274840355
1713800426212752100,5.290752197265625,-0.02871066704392433,-0.03726277872920036,0.01664607785642147
1713800426230482700,5.308482666015625,-0.03298672288656235,-0.05451972410082817,0.024587325751781464
1713800426248201200,5.326201171875,-0.036193765699863434,-0.05864306539297104,0.029168816283345222
1713800426265923000,5.343923095703125,-0.03390302136540413,-0.05451972410082817,0.009010262787342072
1713800426283634000,5.361634033203125,-0.03191770985722542,-0.06017022579908371,-0.007024950347840786
1713800426301368000,5.3793681640625,-0.02580905705690384,-0.036651913076639175,-0.009010262787342072
1713800426319090200,5.397090087890625,-0.013133603148162365,-0.027641652151942253,-0.0025961773935705423
1713800426336812300,5.414812255859375,-0.00366519158706069,-0.02977968007326126,0.003359758760780096
1713800426354533600,5.43253369140625,0.0039706239476799965,-0.03222314268350601,-0.004581489134579897
1713800426372257000,5.450257080078125,0.004734205547720194,-0.04566217586398125,-0.01038470957428217
1713800426389976000,5.46797607421875,-0.0019853119738399982,-0.07391469180583954,-0.0032070425804704428
1713800426407697000,5.48569677734375,-0.006108652334660292,-0.0910189226269722,0.029016099870204926
1713800426425424100,5.503424072265625,0.019853120669722557,-0.03726277872920036,0.06230825558304787
1713800426443146000,5.52114599609375,0.029626963660120964,-0.010995574295520782,0.05726861581206322
1713800426460863700,5.53886376953125,0.025656340643763542,-0.03833179548382759,0.02382374368607998
1713800426478589000,5.5565888671875,0.016340645030140877,-0.07773260027170181,-0.022449297830462456
1713800426496314000,5.574314208984375,0.020463986322283745,-0.08994990587234497,-0.018325956538319588
1713800426514033000,5.592032958984375,0.04245513305068016,-0.049785517156124115,0.015271631069481373
1713800426531760600,5.6097607421875,0.058184914290905,-0.02886338345706463,0.04046982154250145
1713800426549479000,5.62747900390625,0.05604688450694084,-0.048258353024721146,0.036651913076639175
1713800426567201000,5.645200927734375,0.053297992795705795,-0.07162395119667053,0.020463986322283745
1713800426584910600,5.66291064453125,0.03390302136540413,-0.09193521738052368,-0.0003054326225537807
1713800426602648600,5.680648681640625,0.029474247246980667,-0.09453139454126358,-0.017409659922122955
1713800426620370200,5.6983701171875,0.03222314268350601,-0.09117163717746735,-0.012828170321881771
1713800426638091000,5.716091064453125,0.0328340083360672,-0.0988074541091919,-0.0024434609804302454
1713800426655814000,5.73381396484375,0.038179077208042145,-0.061391957104206085,0.0065668015740811825
1713800426673536300,5.751536376953125,0.03833179548382759,-0.0012217304902151227,0.00366519158706069
1713800426691257600,5.769257568359375,0.06520986557006836,0.043676864355802536,-0.019547687843441963
1713800426708978200,5.786978271484375,0.07467827945947647,0.05360342562198639,-0.02519819140434265
1713800426726699500,5.804699462890625,0.06230825558304787,0.003359758760780096,0.017562376335263252
1713800426744424400,5.822424560546875,0.052228979766368866,-0.034666601568460464,0.07757988572120667
1713800426762143200,5.840143310546875,0.03878994286060333,-0.033139441162347794,0.08857546001672745
1713800426779870000,5.857869873046875,0.012522737495601177,0.024587325751781464,0.008704829961061478
1713800426797592000,5.875592041015625,0.0022907445672899485,0.08368854224681854,-0.03451388701796532
1713800426815314400,5.893314453125,0.019547687843441963,0.1371392458677292,0.02122756652534008
1713800426833031700,5.91103173828125,0.022602014243602753,0.13026700913906097,0.11820242553949356
1713800426850754300,5.92875439453125,0.02886338345706463,0.04444044828414917,0.17898350954055786
1713800426868482800,5.94648291015625,0.01725694350898266,-0.04948008432984352,0.13530665636062622
1713800426886203600,5.96420361328125,-0.007635815534740686,-0.10583240538835526,0.026114489883184433
1713800426903925800,5.98192578125,-0.01710422709584236,-0.09407325088977814,-0.08414668589830399
1713800426921651500,5.9996513671875,-0.003359758760780096,-0.060322944074869156,-0.005497787147760391
1713800426939370800,6.017370849609375,0.055894169956445694,-0.11209376901388168,0.2119702398777008
1713800426957092900,6.0350927734375,0.04841107130050659,-0.14737124741077423,0.38438695669174194
1713800426974814500,6.052814453125,-0.025961773470044136,-0.2220495194196701,0.3773620128631592
1713800426992537600,6.07053759765625,-0.10690141469240189,-0.4144720733165741,0.19013181328773499
1713800427010258400,6.088258544921875,-0.1849394589662552,-0.4957171380519867,-0.012522737495601177
1713800427027983600,6.105983642578125,-0.17027868330478668,-0.3553708493709564,-0.13820825517177582
1713800427045700400,6.123700439453125,-0.11453723162412643,-0.15195272862911224,-0.1745547503232956
1713800427063426600,6.141426513671875,-0.07009678333997726,-0.03573561832308769,-0.13866640627384186
1713800427081146400,6.159146484375,-0.0328340083360672,-0.01771509274840355,-0.08765916526317596
1713800427098869800,6.176869873046875,0.010690141469240189,-0.06368270516395569,-0.044745877385139465
1713800427116581600,6.19458154296875,0.04153883829712868,-0.08139779418706894,-0.032681290060281754
1713800427134315800,6.212315673828125,0.04352414980530739,-0.027183502912521362,-0.054825156927108765
1713800427152023600,6.2300234375,0.021991148591041565,0.030543262138962746,-0.08552113175392151
1713800427169762800,6.2477626953125,0.003359758760780096,-0.0007635815418325365,-0.11224649101495743
1713800427187484400,6.265484375,-0.03726277872920036,-0.07635815441608429,-0.12553280591964722
1713800427205205500,6.28320556640625,-0.058337632566690445,-0.1281289905309677,-0.09300423413515091
1713800427222927400,6.30092724609375,-0.05711590126156807,-0.09911288321018219,-0.05054909735918045
1713800427240639700,6.3186396484375,-0.03039054572582245,-0.016493361443281174,-0.005955935921519995
1713800427258369800,6.336369873046875,-0.02229658141732216,-0.007635815534740686,0.009162978269159794
1713800427276097000,6.354096923828125,-0.04245513305068016,-0.0708603709936142,0.016493361443281174
1713800427293816800,6.37181689453125,-0.05864306539297104,-0.12217304855585098,0.049785517156124115
1713800427311539700,6.389539794921875,-0.06185010448098183,-0.10002918541431427,0.06123924255371094
1713800427329259800,6.407259765625,-0.05864306539297104,-0.07819075137376785,0.039095375686883926
1713800427346985200,6.424985107421875,-0.05467243865132332,-0.07238753139972687,0.007788531947880983
1713800427364702500,6.442702392578125,-0.055741455405950546,-0.0887281745672226,0.011301007121801376
1713800427382429000,6.460428955078125,-0.04596760869026184,-0.07742717117071152,0.051312681287527084
1713800427400150500,6.478150634765625,-0.012828170321881771,-0.0032070425804704428,0.10293079167604446
1713800427417869000,6.495869140625,0.02229658141732216,0.10506882518529892,0.12278391420841217
1713800427435593200,6.51359326171875,0.027641652151942253,0.07895433157682419,0.09651670604944229
1713800427453316900,6.53131689453125,-0.003512475173920393,-0.04153883829712868,0.04856378585100174
1713800427471041500,6.54904150390625,-0.027030786499381065,-0.1485929638147354,0.031612277030944824
1713800427488762000,6.56676220703125,-0.016951510682702065,-0.09468411654233932,0.0734565481543541
1713800427506484700,6.584484619140625,0.0039706239476799965,0.005345070734620094,0.1408044397830963
1713800427524206300,6.602206298828125,-0.008399397134780884,0.03145955875515938,0.18020524084568024
1713800427541930200,6.61993017578125,-0.013133603148162365,-0.02825251780450344,0.182648703455925
1713800427559656400,6.637656494140625,-0.02871066704392433,-0.055741455405950546,0.15882496535778046
1713800427577374500,6.65537451171875,-0.04764748737215996,-0.007941247895359993,0.12965615093708038
1713800427595096800,6.673096923828125,-0.05665775015950203,0.0019853119738399982,0.11133018881082535
1713800427612818400,6.690818359375,-0.05742133408784866,-0.0003054326225537807,0.11453723162412643
1713800427630541000,6.708541015625,-0.036041051149368286,0.078343465924263,0.13271047174930573
1713800427648260900,6.7262607421875,0.011301007121801376,0.13927727937698364,0.1547016203403473
1713800427665989000,6.743989013671875,0.02535090781748295,0.10002918541431427,0.1992947906255722
1713800427683704000,6.7617041015625,-0.015577063895761967,-0.12461651116609573,0.23060162365436554
1713800427701430800,6.7794306640625,-0.027947084978222847,-0.21013765037059784,0.19165897369384766
1713800427719148000,6.79714794921875,-0.016493361443281174,-0.15714508295059204,0.15531249344348907
1713800427736870000,6.814869873046875,0.0013744467869400978,-0.06062837690114975,0.08384125679731369
1713800427754597400,6.832597412109375,0.02825251780450344,-0.09056077152490616,0.09422596544027328
1713800427772309200,6.850309326171875,0.06108652427792549,-0.23884831368923187,0.16325373947620392
1713800427790042600,6.868042724609375,0.01924225501716137,-0.3579670190811157,0.17348572611808777
1713800427807759000,6.885759033203125,-0.13011430203914642,-0.5143485069274902,0.1062905490398407
1713800427825485600,6.903485595703125,-0.27977627515792847,-0.6739370822906494,0.19776763021945953
1713800427843211000,6.9212109375,-0.4248567819595337,-0.8295549750328064,0.4282165467739105
1713800427860931800,6.938931884765625,-0.37262779474258423,-0.7878634333610535,0.6481280326843262
1713800427878655000,6.956655029296875,-0.18616119027137756,-0.48915034532546997,0.6411030888557434
1713800427896374800,6.974374755859375,-0.17012597620487213,-0.10262536257505417,0.39767327904701233
1713800427914100500,6.9921005859375,-0.11362093687057495,-0.11820242553949356,0.17088955640792847
1713800427931821300,7.0098212890625,-0.018325956538319588,-0.13500121235847473,0.11804971098899841
1713800427949544400,7.02754443359375,0.197004035115242,-0.19257527589797974,0.1872301995754242
1713800427967265300,7.045265380859375,0.29275718331336975,-0.14752395451068878,0.11820242553949356
1713800427984988700,7.06298876953125,0.2782491147518158,-0.1062905490398407,-0.10552696883678436
1713800428002717200,7.08071728515625,0.17516560852527618,-0.07498370856046677,-0.3197879493236542
1713800428020433400,7.098433349609375,0.13927727937698364,0.009621127508580685,-0.39064833521842957
1713800428038155000,7.116155029296875,0.2200642079114914,0.17440202832221985,-0.39385536313056946
1713800428055877600,7.133877685546875,0.2154827117919922,0.27320948243141174,-0.2921462953090668
1713800428073600500,7.1516005859375,0.1748601794242859,0.18616119027137756,-0.08261952549219131
1713800428091323100,7.1693232421875,0.1511891484260559,0.04337143152952194,0.18555031716823578
1713800428109040000,7.1870400390625,0.10537425428628922,0.007941247895359993,0.17959438264369965
1713800428126757400,7.20475732421875,0.14416420459747314,0.08659014850854874,-0.06291911751031876
1713800428144488400,7.222488525390625,0.192422553896904,0.11423180252313614,-0.2515237629413605
1713800428162214000,7.2402138671875,0.2597704529762268,0.2177734673023224,-0.35063666105270386
1713800428179934200,7.257934326171875,0.235030397772789,0.18157969415187836,-0.35063666105270386
1713800428197657600,7.27565771484375,0.17180584371089935,0.15790866315364838,-0.3982841372489929
1713800428215378200,7.293378173828125,0.11881329119205475,0.2379320114850998,-0.4317290186882019
1713800428233102600,7.3111025390625,0.25106561183929443,0.5845980644226074,-0.35964691638946533
1713800428250824200,7.32882421875,0.4440990388393402,0.8810204267501831,-0.4905247986316681
1713800428268546600,7.346546630859375,0.48456886410713196,0.9036223888397217,-0.6988298296928406
1713800428286269700,7.364269775390625,0.23350323736667633,0.5914703011512756,-0.4537201523780823
1713800428303996200,7.38199609375,0.08216137439012527,0.5974262356758118,0.22052235901355743
1713800428321717800,7.3997177734375,0.10491610318422318,0.7623597979545593,0.8498662710189819
1713800428339436300,7.417436279296875,-0.003512475173920393,0.8110763430595398,0.8958339095115662
1713800428357158100,7.435158203125,-0.23258693516254425,0.5598580241203308,0.4908302128314972
1713800428374862600,7.452862548828125,-0.3171917796134949,0.34895676374435425,-0.251676470041275
1713800428392603000,7.470602783203125,-0.29886582493782043,-0.05650503560900688,-0.8382598161697388
1713800428410320600,7.488320556640625,-0.35262197256088257,-0.6252205967903137,-1.0228939056396484
1713800428428048000,7.5060478515625,-0.5096143484115601,-1.0983357429504395,-0.8420777320861816
1713800428445770800,7.523770751953125,-0.8292495608329773,-1.2628111839294434,-0.4977024495601654
1713800428463494100,7.541494140625,-1.2939653396606445,-1.4952454566955566,0.025961773470044136
1713800428481214000,7.5592138671875,-1.7547104358673096,-1.5804611444473267,0.6426302194595337
1713800428498933200,7.576933349609375,-2.171931266784668,-0.10674870014190674,0.6476698517799377
1713800428516657000,7.594656982421875,-2.42360782623291,0.9248499870300293,0.242513507604599
1713800428534381800,7.6123818359375,-2.4295637607574463,1.0279334783554077,0.4521929919719696
1713800428552089900,7.63008984375,-2.6448938846588135,1.2162326574325562,1.1087204217910767
1713800428569830100,7.647830078125,-3.322037935256958,1.0296133756637573,1.858099341392517
1713800428587549400,7.665549560546875,-4.322940826416016,0.5387831330299377,1.896583914756775
1713800428605270500,7.6832705078125,-5.123021602630615,0.7269296646118164,0.8979719281196594
1713800428622995200,7.7009951171875,-5.215567588806152,1.1719449758529663,-0.39125919342041016
1713800428640717300,7.71871728515625,-4.5631632804870605,1.5215126276016235,-1.3326025009155273
1713800428658439400,7.736439453125,-3.2281174659729004,2.093740701675415,-1.1913399696350098
1713800428676161300,7.754161376953125,-1.2605204582214355,1.3739886283874512,1.3886494636535645
1713800428693883600,7.771883544921875,-0.4360050559043884,0.3828597962856293,1.7368426322937012
1713800428711606000,7.78960595703125,-0.0529925599694252,-0.16798794269561768,1.6682729721069336
1713800428729329000,7.807328857421875,-0.5361869931221008,0.18325957655906677,1.975232720375061
1713800428747051000,7.825051025390625,-1.6742289066314697,1.1244502067565918,1.2391401529312134
1713800428764773400,7.8427734375,-2.535243511199951,0.7199047207832336,0.7728972434997559
1713800428782491000,7.860490966796875,-3.924809217453003,-0.29856038093566895,1.1898127794265747
1713800428800219400,7.878219482421875,-4.74810266494751,0.31291571259498596,1.8933768272399902
1713800428817939700,7.895939697265625,-2.7204883098602295,3.0909781455993652,1.3170254230499268
1713800428835658500,7.913658447265625,-3.2423200607299805,1.8405369520187378,2.36985182762146
1713800428853378800,7.93137890625,-3.7279579639434814,0.5193881988525391,2.813797950744629
1713800428871106300,7.949106201171875,-2.9529225826263428,0.8240572214126587,2.9081766605377197
1713800428888832000,7.96683203125,-1.9259053468704224,0.8504771590232849,2.6195428371429443
1713800428906552300,7.98455224609375,-2.2606594562530518,-0.5988006591796875,1.1151344776153564
1713800428924274400,8.0022744140625,-3.1082351207733154,-2.3069326877593994,0.7860308289527893
1713800428941998300,8.019998291015625,-3.2065844535827637,-1.493565559387207,1.3231340646743774
1713800428959717600,8.037717529296875,-3.0584495067596436,0.6762278079986572,1.2620476484298706
1713800428977444000,8.055444091796875,-2.9584202766418457,2.3460280895233154,0.8860600590705872
1713800428995164700,8.07316455078125,-3.008664131164551,2.866790533065796,0.5503895878791809
1713800429012887000,8.090886962890625,-2.858543872833252,1.647045373916626,1.0380127429962158
1713800429030609200,8.108609130859374,-2.4689645767211914,0.1872301995754242,2.27211332321167
1713800429048331500,8.12633154296875,-2.414292097091675,1.3632985353469849,2.782949447631836
1713800429066054100,8.14405419921875,-2.0839667320251465,1.0980303287506104,3.032182455062866
1713800429083772200,8.161772216796875,-1.5387696027755737,-0.011759156361222267,2.1171061992645264
1713800429101486800,8.17948681640625,-0.9622654914855957,-1.4578299522399902,0.5238169431686401
1713800429119222300,8.19722216796875,-1.0147998332977295,-0.9201157689094543,0.40485092997550964
1713800429136931000,8.21493115234375,-1.0491610765457153,-0.8177958726882935,0.7854200005531311
1713800429154662100,8.232662109375,-1.1036807298660278,0.010231993161141872,1.2635747194290161
1713800429172386800,8.25038671875,-1.2064588069915771,0.8950703144073486,1.7385225296020508
1713800429190112300,8.2681123046875,-1.5676329135894775,1.1513283252716064,2.1836905479431152
1713800429207833600,8.28583349609375,-1.444696307182312,1.6446019411087036,2.6172521114349365
1713800429225556000,8.303555908203125,-1.4141530990600586,0.8865181803703308,2.5329527854919434
1713800429243276800,8.32127685546875,-0.8248208165168762,0.3488040566444397,1.8677204847335815
1713800429261001700,8.339001708984375,-0.7727445363998413,-0.6180428862571716,1.2056952714920044
1713800429278719500,8.356719482421875,-1.4075862169265747,-0.33307427167892456,0.33200526237487793
1713800429296445700,8.37444580078125,-1.7565430402755737,0.1690569519996643,-0.12446379661560059
1713800429314167300,8.392167236328126,-1.5859588384628296,0.8429940342903137,-0.3196352422237396
1713800429331890400,8.409890380859375,-1.405600905418396,0.9495900273323059,-0.3225368559360504
1713800429349612500,8.427612548828124,-0.9327912330627441,1.2904528379440308,0.42928555607795715
1713800429367335400,8.44533544921875,-0.5914703011512756,0.5827654600143433,2.4964535236358643
1713800429385057300,8.463057373046874,-0.12736541032791138,0.3975205719470978,2.780200481414795
1713800429402776800,8.48077685546875,1.0103710889816284,1.871691107749939,1.6629278659820557
1713800429420505300,8.49850537109375,1.0477865934371948,2.3658812046051025,0.6973026990890503
1713800429438221000,8.516220947265625,0.7489207983016968,1.6322319507598877,0.39675697684288025
1713800429455946000,8.533946044921874,0.7354817390441895,1.747685432434082,1.3339769840240479
1713800429473664800,8.551664794921875,1.7411186695098877,0.9834930300712585,2.0315849781036377
1713800429491392000,8.56939208984375,2.7766878604888916,0.7843509912490845,2.2548563480377197
1713800429509114600,8.587114501953126,2.856253147125244,1.0374019145965576,2.415055751800537
1713800429526836500,8.60483642578125,2.1456642150878906,1.0948232412338257,2.3747386932373047
1713800429544558300,8.622558349609376,1.3032809495925903,1.4081971645355225,2.0506746768951416
1713800429562283000,8.640282958984375,0.7728972434997559,1.6752979755401611,1.6733126640319824
1713800429580003000,8.658003173828124,0.5012149214744568,1.425148606300354,1.5117387771606445
1713800429597726200,8.675726318359375,0.613461434841156,0.5616905689239502,1.4943290948867798
1713800429615448600,8.693448486328125,0.9141598343849182,-0.09422596544027328,1.4760031700134277
1713800429633171000,8.7111708984375,0.9810495972633362,-0.2125810980796814,1.2527319192886353
1713800429650893600,8.7288935546875,0.636521577835083,-0.012522737495601177,0.9250026941299438
1713800429668615700,8.74661572265625,0.29397889971733093,0.32986724376678467,0.7318165898323059
1713800429686338300,8.76433837890625,0.02672535367310047,0.6525567770004272,0.5138903856277466
1713800429704060700,8.782060791015626,-0.17333301901817322,0.9747881889343262,0.25793784856796265
1713800429721783000,8.799782958984375,-0.25366178154945374,1.1455250978469849,0.012828170321881771
1713800429739505000,8.8175048828125,-0.22907446324825287,1.1814134120941162,-0.2275473028421402
1713800429757222000,8.835221923828126,-0.2148718535900116,1.1157454252243042,-0.5041165351867676
1713800429774951400,8.852951416015625,-0.2977968156337738,1.0122036933898926,-0.837496280670166
1713800429792668000,8.87066796875,-0.6841690540313721,1.3909401893615723,-1.3300063610076904
1713800429810394600,8.88839453125,-1.1679743528366089,2.404060125350952,-1.8851301670074463
1713800429828112400,8.9061123046875,-1.2472341060638428,2.8321239948272705,-2.02929425239563
1713800429845838300,8.92383837890625,-0.7101308703422546,2.4268147945404053,-1.238071084022522
1713800429863563000,8.94156298828125,0.16401731967926025,1.1998920440673828,-0.04153883829712868
1713800429881284400,8.959284423828125,0.6264423131942749,0.21090123057365417,0.685390830039978
1713800429899004000,8.97700390625,0.49357911944389343,-0.4583016633987427,0.3949243724346161
1713800429916727800,8.994727783203125,0.04596760869026184,-0.7197519540786743,-0.12278391420841217
1713800429934451700,9.01245166015625,-0.2974913716316223,-1.0384708642959595,-0.5189300179481506
1713800429952175000,9.030175048828125,-0.009773843921720982,-1.519832730293274,-0.4737260043621063
1713800429969896200,9.047896240234374,0.4014911949634552,-1.5473216772079468,0.2695443034172058
1713800429987618600,9.06561865234375,0.8090910315513611,-1.547932505607605,0.8600982427597046
1713800430005341400,9.083341552734375,0.4769330322742462,-1.4697418212890625,1.1603385210037231
1713800430023063300,9.101063232421875,-0.13454307615756989,-0.5734497308731079,1.1505646705627441
1713800430040786000,9.118785888671875,-0.04001167416572571,0.21349740028381348,0.15622878074645996
1713800430058508000,9.136508056640626,0.19288070499897003,0.5477933883666992,-1.010523796081543
1713800430076229600,9.154229736328125,0.5146539807319641,1.0453431606292725,-1.0453431606292725
1713800430093953500,9.17195361328125,0.6218608021736145,0.3599523603916168,-1.105207920074463
1713800430111670500,9.18967041015625,0.37140607833862305,0.01466076634824276,-1.5537357330322266
1713800430129393000,9.207392822265625,-0.00015271631127689034,0.25961771607398987,-1.705993890762329
1713800430147119600,9.22511962890625,0.04077525436878204,0.2122756689786911,-1.7551685571670532
1713800430164842000,9.242842041015624,0.5601634383201599,-0.052228979766368866,-1.208902359008789
1713800430182564900,9.26056494140625,0.684779942035675,-0.15806138515472412,-0.5346598029136658
1713800430200287000,9.278286865234374,0.7693848013877869,-0.609338104724884,-0.4859432876110077
1713800430218008600,9.296008544921875,0.01114829070866108,-0.31520646810531616,-0.5250386595726013
1713800430235725300,9.313725341796875,-0.38377609848976135,-0.49037206172943115,-1.034500241279602
1713800430253454000,9.3314541015625,-0.41691553592681885,-0.5853615999221802,-1.158811330795288
1713800430271177000,9.349177001953125,0.06750060617923737,-0.10186178237199783,-0.2588541507720947
1713800430288894500,9.36689453125,0.07895433157682419,-0.7422012686729431,0.2551889419555664
1713800430306621200,9.38462109375,0.005803219974040985,-0.584139883518219,0.11881329119205475
1713800430324343600,9.402343505859376,-0.12263119965791702,-0.1267545372247696,-0.4841107130050659
1713800430342066200,9.420066162109375,-0.32039880752563477,0.5659666657447815,-0.9750936627388
1713800430359788800,9.437788818359374,-0.4173736870288849,1.1505646705627441,-1.0152580738067627
1713800430377510700,9.4555107421875,-0.24648413062095642,1.2499829530715942,-1.010523796081543
1713800430395231700,9.473231689453126,0.0377209298312664,1.3859004974365234,-0.9283624291419983
1713800430412956700,9.490956787109376,-0.2226603776216507,1.0169379711151123,-1.0147998332977295
1713800430430673400,9.50867333984375,-0.2606867551803589,1.3585642576217651,-1.2264647483825684
1713800430448388000,9.52638818359375,-0.02321287989616394,1.4115568399429321,-1.2855658531188965
1713800430466122800,9.544122802734375,-0.07070764899253845,0.8145887851715088,-1.25761878490448
1713800430483844900,9.561844970703126,-0.35124751925468445,0.45982882380485535,-1.2738068103790283
1713800430501567500,9.5795673828125,-0.17760907113552094,0.13286319375038147,-0.6896668672561646
1713800430519288300,9.597288330078126,0.14538592100143433,-0.14523321390151978,0.12018773704767227
1713800430537013200,9.61501318359375,0.03481931984424591,0.15485434234142303,0.20616702735424042
1713800430554734300,9.632734375,0.18829920887947083,0.12110403180122375,0.27488934993743896
1713800430572457200,9.650457275390625,0.34956762194633484,-0.07696902006864548,0.21609358489513397
1713800430590169300,9.66816943359375,0.13820825517177582,0.19303341209888458,-0.01725694350898266
1713800430607899600,9.685899658203125,0.019089538604021072,0.4479169547557831,-0.47448956966400146
1713800430625623800,9.703623779296874,0.10690141469240189,0.5577199459075928,-0.4951062798500061
1713800430643346400,9.721346435546875,0.25931230187416077,0.9358455538749695,-0.4434881806373596
1713800430661068000,9.739068115234375,0.4138612151145935,1.0147998332977295,-0.49953505396842957
1713800430678791000,9.756791015625,0.3831652104854584,0.9254608750343323,-0.4306600093841553
1713800430696513000,9.774512939453125,0.30344730615615845,0.716697633266449,-0.11071932315826416
1713800430714235000,9.79223486328125,0.4867068827152252,0.380721777677536,0.4648684561252594
1713800430731954200,9.8099541015625,0.7038694620132446,0.34086281061172485,0.8032878041267395
1713800430749675500,9.827675537109375,0.9335548281669617,0.2269364446401596,0.9905179738998413
1713800430767402800,9.84540283203125,1.1438452005386353,0.13057245314121246,1.063821792602539
1713800430785125400,9.86312548828125,1.3593279123306274,0.0884227454662323,1.3552045822143555
1713800430802828800,9.880828857421875,1.6945401430130005,0.07437284290790558,1.8489364385604858
1713800430820568600,9.898568603515624,2.069000482559204,0.6079636216163635,2.068389654159546
1713800430838293000,9.91629296875,1.9294178485870361,1.3924673795700073,1.9646953344345093
1713800430856014800,9.934014892578125,1.8726073503494263,1.1921035051345825,1.5636622905731201
1713800430873736400,9.951736328125,1.5676329135894775,0.8113817572593689,0.6861543655395508
1713800430891457800,9.969457763671874,1.538464069366455,0.3246748745441437,-0.2968805134296417
1713800430909182500,9.987182373046876,1.410946011543274,-0.11423180252313614,-0.9295842051506042
1713800430926904000,10.004904052734375,0.8329147696495056,0.1498146951198578,-1.3556627035140991
1713800430944625000,10.022625,0.5593998432159424,0.046273041516542435,-1.8351919651031494
1713800430962349800,10.040349853515625,0.5552765130996704,-0.23579397797584534,-1.8225164413452148
1713800430980071000,10.05807080078125,0.6076582074165344,-0.3927863538265228,-1.2183706760406494
1713800430997793500,10.07579345703125,1.0476338863372803,-0.1667662113904953,-0.5106833577156067
1713800431015514600,10.0935146484375,1.5015068054199219,0.25824329257011414,0.2370157092809677
1713800431033236700,10.11123681640625,1.2701416015625,-0.33429601788520813,1.443474531173706
1713800431050961400,10.12896142578125,1.1803443431854248,0.841008722782135,1.90925931930542
1713800431068678100,10.14667822265625,0.4202753007411957,1.120632290840149,1.8813122510910034
1713800431086404600,10.164404541015625,-0.3605632185935974,1.680795669555664,0.7661777138710022
1713800431104122400,10.182122314453125,-0.26404649019241333,1.4918856620788574,0.554818332195282
1713800431121849300,10.199849365234375,0.6301075220108032,-0.5587889552116394,0.4121813178062439
1713800431139572200,10.217572265625,1.7304285764694214,-2.397646188735962,0.18035796284675598
1713800431157294300,10.23529443359375,1.4404202699661255,-0.5543602108955383,0.28619036078453064
1713800431175011800,10.25301171875,0.4079052805900574,-0.4859432876110077,0.4231768846511841
1713800431192737500,10.270737548828125,0.6433938145637512,0.31581732630729675,0.5717698931694031
1713800431210462700,10.288462646484374,1.018770456314087,-0.6301075220108032,0.2863430976867676
1713800431228183000,10.30618310546875,0.9144652485847473,-2.0638082027435303,-0.6256787180900574
1713800431245906200,10.32390625,0.4807509481906891,-1.837024450302124,-1.2602150440216064
1713800431263630600,10.341630615234376,0.10720685124397278,-0.5036584138870239,-1.2849550247192383
1713800431281348600,10.3593486328125,-0.19379699230194092,-0.05451972410082817,-0.6730207800865173
1713800431299068700,10.377068603515625,-0.2275473028421402,-0.812298059463501,-0.3501785099506378
1713800431316795100,10.394795166015625,-0.3602577745914459,-0.790154218673706,-0.10873401165008545
1713800431334516500,10.4125166015625,-0.2499966025352478,-0.15042556822299957,-0.5018258094787598
1713800431352240000,10.430240234375,-0.0029016099870204926,-0.22342395782470703,-1.053742527961731
1713800431369962500,10.44796240234375,0.059864792972803116,0.47968193888664246,-0.8452847599983215
1713800431387679700,10.4656796875,0.5204572081565857,0.6389650702476501,-0.8585711121559143
1713800431405406700,10.48340673828125,1.0491610765457153,0.6513350605964661,-1.1068878173828125
1713800431423129300,10.50112939453125,1.3190107345581055,0.5102251768112183,-1.056491494178772
1713800431440851200,10.518851318359374,1.3057245016098022,0.030085112899541855,-1.1488847732543945
1713800431458573800,10.53657373046875,1.2389874458312988,-0.44806966185569763,-1.1737775802612305
1713800431476291300,10.554291259765625,1.211803913116455,-0.5036584138870239,-1.1501065492630005
1713800431494018300,10.572018310546875,1.3225232362747192,-0.6669121384620667,-1.2611312866210938
1713800431511740000,10.589739990234374,1.1508700847625732,-0.7150177955627441,-0.8231409192085266
1713800431529463000,10.607463134765625,1.129184365272522,-0.5700899958610535,-0.3119994103908539
1713800431547179500,10.625179443359375,1.0911580324172974,-0.4726569950580597,-0.0832303911447525
1713800431564908300,10.642908203125,0.9277516007423401,-0.8000807762145996,-0.10720685124397278
1713800431582629600,10.660629638671875,0.6730207800865173,-0.7451028823852539,-0.2376265823841095
1713800431600352300,10.678352294921876,0.3724750876426697,-0.8662069439888,-0.13377949595451355
1713800431618075000,10.696074951171875,-0.18127426505088806,-0.9410378932952881,0.5535966157913208
1713800431635797200,10.71379736328125,-0.9494373202323914,-0.27229318022727966,1.0986411571502686
1713800431653519000,10.73151904296875,-1.3857477903366089,0.6734789609909058,1.429577350616455
1713800431671240400,10.749240478515626,-1.627650499343872,1.4555391073226929,2.1646010875701904
1713800431688960800,10.766960693359374,-1.0983357429504395,2.1671972274780273,2.9570460319519043
1713800431706681900,10.784681884765625,0.07254024595022202,1.2501357793807983,3.4008395671844482
1713800431724407800,10.80240771484375,0.6420193910598755,-0.1007927656173706,2.9750664234161377
1713800431742131500,10.82013134765625,0.5019785165786743,-0.5025894045829773,2.445293664932251
1713800431759852800,10.837852783203125,0.12446379661560059,-0.00015271631127689034,2.292119026184082
1713800431777570800,10.85557080078125,-0.22311852872371674,0.2915354371070862,2.1925480365753174
1713800431795297500,10.873297607421875,-0.3819434940814972,-0.33169981837272644,2.1279489994049072
1713800431813020200,10.891020263671875,-0.537408709526062,-0.5732970237731934,2.0091357231140137
1713800431830742300,10.9087421875,-0.6261368989944458,-0.07467827945947647,1.7333301305770874
1713800431848465000,10.92646484375,-0.5189300179481506,0.5293147563934326,1.6733126640319824
1713800431866185200,10.944185302734375,-0.37827831506729126,1.010829210281372,1.5595389604568481
1713800431883910700,10.96191064453125,-0.39813143014907837,1.5024230480194092,1.197295904159546
1713800431901628000,10.9796279296875,-0.49877145886421204,1.8428276777267456,0.7774787545204163
1713800431919354400,10.997354248046875,-0.5251913666725159,1.7637206315994263,0.24846944212913513
1713800431937075700,11.01507568359375,-0.5183191895484924,1.4689781665802002,-0.29535335302352905
1713800431954798800,11.032798828125,-0.5111414790153503,1.0125091075897217,-0.6959282159805298
1713800431972511700,11.05051171875,-0.49693888425827026,0.7898487448692322,-1.1557570695877075
1713800431990242600,11.06824267578125,-0.2921462953090668,0.4245513379573822,-1.5781704187393188
1713800432007966500,11.085966552734375,0.1518000066280365,0.19685132801532745,-1.8973474502563477
1713800432025684000,11.10368408203125,0.35353827476501465,0.03451388701796532,-1.9799669981002808
1713800432043410200,11.12141015625,0.16203200817108154,0.18784105777740479,-1.7313448190689087
1713800432061132500,11.139132568359376,-0.18188512325286865,0.9019425511360168,-1.146135926246643
1713800432078850300,11.156850341796876,-0.39767327904701233,1.640325903892517,-0.08124507963657379
1713800432096576800,11.17457666015625,-0.2554943859577179,1.5137240886688232,1.2831224203109741
1713800432114299600,11.192299560546875,0.07422012835741043,1.3254249095916748,2.185370445251465
1713800432132021800,11.210021728515626,-0.10720685124397278,1.5871806144714355,1.937359094619751
1713800432149739000,11.227739013671876,-0.2871066629886627,2.021505832672119,0.840397834777832
1713800432167465200,11.24546533203125,-0.17608191072940826,1.7904460430145264,0.05742133408784866
1713800432185186800,11.263186767578125,0.19303341209888458,0.8151996731758118,-0.004581489134579897
1713800432202914300,11.280914306640625,0.154396191239357,-0.6279694437980652,0.015577063895761967
1713800432220630800,11.298630859375,0.6210972666740417,-1.2651019096374512,0.46364670991897583
1713800432238356700,11.316356689453125,0.970054030418396,-3.752087116241455,-0.90728759765625
1713800432256079000,11.3340791015625,1.5567901134490967,-0.5937610268592834,-0.7180721163749695
1713800432273800400,11.351800537109375,1.4610369205474854,-0.892779529094696,-1.1137601137161255
1713800432291522300,11.369522216796875,0.6197227835655212,-3.191159963607788,-2.230116367340088
1713800432309243400,11.387243408203124,-0.21181751787662506,-2.069153308868408,-1.9717203378677368
1713800432326968300,11.40496826171875,-0.21533000469207764,0.4193589985370636,-1.3359622955322266
1713800432344685300,11.422685302734376,-0.15134187042713165,-0.08750644326210022,-1.6475036144256592
1713800432362411300,11.440411376953126,-0.007635815534740686,-1.274264931678772,-1.9914207458496094
1713800432380134000,11.4581337890625,0.13515393435955048,-1.1925616264343262,-1.9365955591201782
1713800432397856300,11.475856201171876,0.3016147017478943,-0.6724098920822144,-1.6920967102050781
1713800432415578600,11.49357861328125,0.5183191895484924,-0.7316638231277466,-1.6746870279312134
1713800432433300500,11.511300537109374,0.7509061098098755,-0.8196284174919128,-1.8918496370315552
1713800432451018000,11.52901806640625,0.5320636034011841,-0.7680103182792664,-1.9040669202804565
1713800432468745200,11.5467451171875,0.3859141170978546,-0.4922046661376953,-1.8509217500686646
1713800432486467800,11.5644677734375,0.3828597962856293,-0.3620903789997101,-1.836719036102295
1713800432504189400,11.582189453125,0.3572034537792206,-0.5193881988525391,-1.761277198791504
1713800432521912300,11.599912353515625,0.3318525552749634,-0.4105014503002167,-1.7863227128982544
1713800432539634000,11.617634033203124,0.3139847218990326,-0.39477166533470154,-1.82404363155365
1713800432557358000,11.635358154296876,0.36560285091400146,-0.5199990272521973,-1.7898352146148682
1713800432575078700,11.65307861328125,0.4534147381782532,-0.741284966468811,-1.5871806144714355
1713800432592801500,11.670801513671876,0.4648684561252594,-0.8170322775840759,-1.289994716644287
1713800432610523600,11.688523681640625,0.4334088861942291,-0.7357872128486633,-0.935998260974884
1713800432628245000,11.706244873046876,0.47998735308647156,-0.6944010853767395,-0.4712825417518616
1713800432645969200,11.72396923828125,0.394008070230484,-0.6722571849822998,-0.2791654169559479
1713800432663686000,11.741685791015625,0.018325956538319588,-0.8118399381637573,-0.23365595936775208
1713800432681412600,11.75941259765625,-0.06368270516395569,-0.8445212244987488,0.16920967400074005
1713800432699135200,11.77713525390625,-0.06688974797725677,-0.5685628056526184,0.963792622089386
1713800432716856800,11.79485693359375,-0.5210680365562439,-0.18814650177955627,1.5413657426834106
1713800432734582500,11.81258251953125,-0.8596401214599609,0.44684791564941406,2.189035654067993
1713800432752299000,11.830299072265625,-0.8245153427124023,0.911410927772522,3.1064023971557617
1713800432770024400,11.8480244140625,-0.9634872078895569,1.3374894857406616,3.1694743633270264
1713800432787746000,11.86574609375,-1.134834885597229,1.867262363433838,2.431091070175171
1713800432805468400,11.883468505859375,-1.1644618511199951,1.7469218969345093,2.5172228813171387
1713800432823186400,11.9011865234375,-1.052673578262329,0.9842566251754761,2.895043134689331
1713800432840912100,11.918912109375,-0.8417723178863525,-0.08384125679731369,2.7817275524139404
1713800432858637300,11.93663720703125,-0.517250120639801,-1.746311068534851,2.6036603450775146
1713800432876357600,11.954357666015625,-0.3090978264808655,-2.461786985397339,2.715906858444214
1713800432894080000,11.972080078125,-0.5838344693183899,-1.7478381395339966,2.560441732406616
1713800432911802400,11.98980224609375,-0.8622363209724426,-0.033597588539123535,2.2130119800567627
1713800432929524500,12.0075244140625,-0.4873177409172058,1.069166898727417,2.3492350578308105
1713800432947245300,12.025245361328125,0.038637228310108185,2.5048530101776123,2.2547035217285156
1713800432964970500,12.042970458984374,0.21013765037059784,3.0581440925598145,1.9689713716506958
1713800432982687200,12.060687255859374,0.03955352306365967,2.119091510772705,1.709811806678772
1713800433000413700,12.07841357421875,0.005039638374000788,1.4604260921478271,1.1452195644378662
1713800433018135800,12.0961357421875,0.02519819140434265,1.454470157623291,0.32788193225860596
1713800433035858200,12.113858154296874,0.07177666574716568,1.6756033897399902,-0.4738787114620209
1713800433053571800,12.13157177734375,0.0936150997877121,1.540602207183838,-1.398881435394287
1713800433071302400,12.149302490234374,0.0913243517279625,1.410946011543274,-2.2681427001953125
1713800433089023700,12.167023681640625,-0.11026117950677872,1.701259732246399,-2.1369593143463135
1713800433106750500,12.18475048828125,-0.3620903789997101,0.9327912330627441,-0.5988006591796875
1713800433124463900,12.2024638671875,0.04352414980530739,0.39354994893074036,0.11514809727668762
1713800433142193000,12.22019287109375,0.1508837193250656,0.7298312783241272,0.4008803069591522
1713800433159914200,12.237914306640626,0.03039054572582245,1.8832975625991821,0.53328537940979
1713800433177637000,12.25563720703125,0.02474004216492176,1.158505916595459,0.6676757335662842
1713800433195359000,12.27335888671875,0.21059578657150269,0.47571131587028503,0.7751879692077637
1713800433213079800,12.291079833984375,0.5564982295036316,0.17806722223758698,1.00197172164917
1713800433230804700,12.3088046875,0.8344419002532959,-0.6337726712226868,1.2397509813308716
1713800433248525300,12.326525390625,0.8723155856132507,-0.7590000629425049,0.2612976133823395
1713800433266247200,12.3442470703125,1.0056369304656982,-1.5370897054672241,-1.1557570695877075
1713800433283971000,12.36197119140625,0.5070181488990784,-3.2371275424957275,-1.5056301355361938
1713800433301687600,12.3796875,0.17928895354270935,-3.8597519397735596,-1.4697418212890625
1713800433319414800,12.397414794921875,0.10125091671943665,-3.6389243602752686,-2.464993953704834
1713800433337134300,12.41513427734375,-0.37919458746910095,-1.2510520219802856,-1.9451476335525513
1713800433354861600,12.432861572265624,-0.49877145886421204,-0.8756753206253052,-1.8880317211151123
1713800433372581400,12.450581298828125,-0.3888157308101654,-2.216066360473633,-2.298074960708618
1713800433390303700,12.4683037109375,-0.19379699230194092,-2.4304800033569336,-2.317164659500122
1713800433408025900,12.48602587890625,-0.012217304669320583,-2.07663631439209,-2.182774305343628
1713800433425743000,12.5037431640625,0.10903944820165634,-1.4034628868103027,-2.233934164047241
1713800433443470300,12.52147021484375,0.23655757308006287,-1.2191343307495117,-2.160630464553833
1713800433461193000,12.53919287109375,0.3903428912162781,-1.4482088088989258,-1.9703458547592163
1713800433478910500,12.556910400390626,0.47280970215797424,-1.843896746635437,-1.9023871421813965
1713800433496631800,12.5746318359375,0.41340306401252747,-1.8277088403701782,-1.8545868396759033
1713800433514358300,12.592358154296875,0.3962988257408142,-1.651321530342102,-1.7676912546157837
1713800433532083000,12.6100830078125,0.3836233615875244,-1.6392568349838257,-1.777923345565796
1713800433549804300,12.62780419921875,0.5099197626113892,-1.567480206489563,-1.8449658155441284
1713800433567526000,12.64552587890625,0.6290385127067566,-1.2832751274108887,-1.8277088403701782
1713800433585247500,12.66324755859375,0.6507241725921631,-0.9831876158714294,-1.62047278881073
1713800433602972000,12.680971923828125,0.6204863786697388,-0.9411906003952026,-1.386358618736267
1713800433620688600,12.698688720703124,0.5925393104553223,-1.0395399332046509,-1.114981770515442
1713800433638415000,12.7164150390625,0.5435173511505127,-1.2278391122817993,-0.8535314798355103
1713800433656137200,12.73413720703125,0.4202753007411957,-1.5647313594818115,-0.6757696866989136
1713800433673859800,12.75185986328125,0.33918291330337524,-1.506240963935852,-0.44974952936172485
1713800433691582500,12.76958251953125,0.3859141170978546,-1.0906999111175537,-0.20357084274291992
1713800433709303800,12.7873037109375,0.38347065448760986,-0.880104124546051,0.029168816283345222
1713800433727026400,12.8050263671875,0.30405816435813904,-0.5746715068817139,0.7099781036376953
1713800433744748500,12.82274853515625,-0.2612976133823395,0.08200865983963013,1.1646145582199097
1713800433762471400,12.840471435546876,-0.7524332404136658,0.5761986374855042,1.891544222831726
1713800433780183800,12.858183837890625,-0.99876469373703,0.9813550114631653,2.48209810256958
1713800433797911800,12.875911865234375,-1.1042916774749756,1.8102991580963135,2.913980007171631
1713800433815638300,12.89363818359375,-1.1021536588668823,2.062586545944214,2.7728700637817383
1713800433833360100,12.911360107421874,-1.012050986289978,1.9043724536895752,2.506685495376587
1713800433851081700,12.929081787109375,-0.9529497623443604,1.6756033897399902,2.5857925415039062
1713800433868804600,12.9468046875,-0.8837692737579346,0.9824240207672119,2.864041805267334
1713800433886525400,12.964525390625,-0.835969090461731,-0.7386888265609741,2.8849637508392334
1713800433904249000,12.9822490234375,-0.6698137521743774,-2.379014730453491,2.8463265895843506
1713800433921972200,12.99997216796875,-0.6414085030555725,-2.2235496044158936,2.6190848350524902
1713800433939688400,13.0176884765625,-1.0864238739013672,-0.09269879758358002,2.102445363998413
1713800433957415400,13.03541552734375,-1.2162326574325562,1.6537649631500244,2.124589204788208
1713800433975138000,13.053137939453125,-1.0186177492141724,2.5187501907348633,2.219120740890503
1713800433992859400,13.070859375,-0.8588765263557434,2.5981626510620117,1.9005545377731323
1713800434010582300,13.088582275390625,-0.8672759532928467,2.2757785320281982,1.463938593864441
1713800434028304400,13.106304443359376,-0.7322747111320496,2.4807238578796387,1.0497719049453735
1713800434046027000,13.124027099609375,-0.5123631954193115,2.5298984050750732,0.5977316498756409
1713800434063748600,13.14174853515625,-0.39874228835105896,2.2733349800109863,0.12553280591964722
1713800434081471200,13.15947119140625,-0.24785856902599335,1.833817481994629,-0.35964691638946533
1713800434099188500,13.1771884765625,-0.07422012835741043,1.4278974533081055,-0.8775079250335693
1713800434116916200,13.194916259765625,-0.01114829070866108,1.3904820680618286,-1.3724614381790161
1713800434134637000,13.212636962890626,0.029626963660120964,1.2680035829544067,-1.7582229375839233
1713800434152361200,13.230361328125,-0.26633724570274353,1.4257594347000122,-1.8125898838043213
1713800434170077700,13.24807763671875,-0.4239404797554016,1.848020076751709,-0.6855435371398926
1713800434187803600,13.2658037109375,-0.09162978827953339,2.4100160598754883,0.6185010671615601
1713800434205527300,13.28352734375,-0.017562376335263252,1.7009543180465698,1.3510812520980835
1713800434223248000,13.301247802734375,-0.3364340364933014,1.5903877019882202,1.3678799867630005
1713800434240972000,13.318971923828125,-0.1898263692855835,1.225701093673706,0.8920159935951233
1713800434258689300,13.336689208984374,-0.06001751124858856,0.7063129544258118,0.33689218759536743
1713800434276415700,13.354415771484375,0.12660181522369385,0.5138903856277466,-0.3510948121547699
1713800434294138000,13.37213818359375,0.5954409241676331,-1.228450059890747,-0.8446739315986633
1713800434311860500,13.389860595703125,0.8326093554496765,-2.6114490032196045,-1.0876455307006836
1713800434329582800,13.407582763671876,0.6215553879737854,-1.2240211963653564,0.05192354694008827
1713800434347304700,13.4253046875,0.7548767328262329,-2.270280599594116,0.09987647086381912
1713800434365027000,13.443027099609376,0.7186829447746277,-3.395189046859741,-0.9140071272850037
1713800434382749200,13.460749267578125,0.31352660059928894,-3.7895026206970215,-1.906968593597412
1713800434400471800,13.478471923828126,0.25473082065582275,-3.322343349456787,-2.309070587158203
1713800434418193400,13.496193359375,0.03145955875515938,-1.3460415601730347,-1.7884607315063477
1713800434435916000,13.513916015625,-0.09392052888870239,-0.2580905556678772,-1.7163785696029663
1713800434453635600,13.531635498046874,-0.0734565481543541,-0.4544837474822998,-2.0195205211639404
1713800434471358700,13.549358642578126,0.10735956579446793,-0.7067710757255554,-2.169029712677002
1713800434489079300,13.567079345703124,0.29168814420700073,-0.7052439451217651,-2.045787811279297
1713800434506808000,13.58480810546875,0.35384368896484375,-0.6385068893432617,-1.965153455734253
1713800434524525600,13.602525634765625,0.36132678389549255,-0.8287914395332336,-1.9999728202819824
1713800434542250000,13.62025,0.327729195356369,-0.8739954233169556,-1.959961175918579
1713800434559971300,13.637971435546875,0.26908615231513977,-0.737772524356842,-1.9381227493286133
1713800434577690600,13.655690673828126,0.3225368559360504,-0.6531676650047302,-1.958433985710144
1713800434595415800,13.673415771484375,0.5412266254425049,-0.8235990405082703,-1.8509217500686646
1713800434613138400,13.691138427734375,0.6443101167678833,-1.0015136003494263,-1.7356208562850952
1713800434630860300,13.7088603515625,0.684474527835846,-0.9085093140602112,-1.655444860458374
1713800434648582700,13.726582763671875,0.6543893814086914,-0.584750771522522,-1.4773776531219482
1713800434666304800,13.7443046875,0.5803219676017761,-0.5842925906181335,-1.4066699743270874
1713800434684027400,13.76202734375,0.6146831512451172,-0.9871582388877869,-1.28434419631958
1713800434701749000,13.7797490234375,0.765566885471344,-1.0170906782150269,-0.7579310536384583
1713800434719471600,13.7974716796875,0.6356052756309509,-1.4468343257904053,-0.631481945514679
1713800434737193700,13.81519384765625,0.33536502718925476,-1.4075862169265747,-0.5091561675071716
1713800434754916400,13.832916259765625,0.14645494520664215,-1.0409144163131714,-0.2929098904132843
1713800434772638200,13.85063818359375,0.029626963660120964,-0.7003570199012756,0.06627888232469559
1713800434790360600,13.868360595703125,-0.04138612002134323,-0.528245747089386,0.646295428276062
1713800434808082400,13.88608251953125,-0.42378777265548706,-0.06475171446800232,1.228450059890747
1713800434825805300,13.903805419921875,-0.9213374853134155,0.5911648273468018,1.8842138051986694
1713800434843527000,13.92152685546875,-0.9764680862426758,1.13758385181427,2.4666738510131836
1713800434861248300,13.939248291015625,-0.9801332950592041,1.3542882204055786,3.177262783050537
1713800434878968000,13.956968017578125,-0.9882272481918335,1.359480619430542,2.8608345985412598
1713800434896690000,13.97468994140625,-1.0106765031814575,0.9442449808120728,2.364812135696411
1713800434914414600,13.99241455078125,-1.1728612184524536,0.8119926452636719,2.7310256958007812
1713800434932139300,14.01013916015625,-1.246165156364441,0.7400632500648499,2.9123001098632812
1713800434949860400,14.0278603515625,-1.0186177492141724,-0.3399465084075928,2.727513313293457
1713800434967583200,14.045583251953126,-0.8720101118087769,-1.2551753520965576,2.7197248935699463
1713800434985304800,14.063304931640625,-0.732122004032135,-0.4381431043148041,2.6317601203918457
1713800435003027000,14.08102685546875,-0.6890559792518616,0.6719517707824707,2.1539108753204346
1713800435020749300,14.098749267578125,-0.8032878041267395,1.589624047279358,2.283566951751709
1713800435038471700,14.1164716796875,-0.6948592066764832,1.7227927446365356,2.356718063354492
1713800435056193300,14.134193359375,-0.5494732856750488,2.0323486328125,2.0534234046936035
1713800435073915600,14.15191552734375,-0.4395175576210022,2.378556489944458,1.6630805730819702
1713800435091638500,14.169638427734375,-0.29856038093566895,2.398409605026245,1.2814425230026245
1713800435109360000,14.187360107421876,-0.1618792861700058,2.0958786010742188,0.726471483707428
1713800435127082000,14.20508203125,-0.09575312584638596,1.8930714130401611,0.11224649101495743
1713800435144799500,14.222799560546875,-0.04581489413976669,1.469589114189148,-0.5937610268592834
1713800435162525700,14.240525634765625,-0.006872233934700489,1.0296133756637573,-1.3628404140472412
1713800435180249000,14.2582490234375,-0.07040221989154816,0.7115052938461304,-2.0636556148529053
1713800435197972500,14.275972412109375,-0.270766019821167,0.7376197576522827,-2.255314588546753
1713800435215689000,14.29368896484375,-0.5170974135398865,1.3110694885253906,-0.9445503950119019
1713800435233414700,14.31141455078125,-0.33292156457901,1.4424055814743042,0.6661485433578491
1713800435251139000,14.32913916015625,0.12446379661560059,0.9152288436889648,0.8127561807632446
1713800435268855800,14.346855712890624,-0.1293507218360901,0.7409795522689819,0.9338602423667908
1713800435286582000,14.36458203125,-0.13988813757896423,1.2542591094970703,0.9121745228767395
1713800435304305200,14.38230517578125,0.098502017557621,0.9715811610221863,0.7328855991363525
1713800435322011600,14.40001171875,0.3191770911216736,0.3781255781650543,0.15317445993423462
1713800435339748900,14.417748779296875,0.6919575929641724,-0.15851953625679016,-0.08368854224681854
1713800435357471000,14.435470947265625,0.5209153294563293,-0.8587238192558289,-0.19624045491218567
1713800435375193600,14.453193603515626,0.2125810980796814,-1.2770137786865234,-0.16920967400074005
1713800435392921000,14.470921142578124,0.6659958362579346,-2.8825204372406006,-0.598647952079773
1713800435410638300,14.488638427734376,1.0317513942718506,-3.520416498184204,-1.406822681427002
1713800435428360200,14.506360107421875,0.7043276429176331,-2.7009406089782715,-1.4821118116378784
1713800435446077400,14.524077392578125,0.3032945990562439,-2.5448646545410156,-2.0140228271484375
1713800435463804700,14.5418046875,-0.14905111491680145,-2.436894178390503,-1.8889480829238892
1713800435481526800,14.55952685546875,-0.39965859055519104,-1.7431039810180664,-1.6004669666290283
1713800435499247900,14.577247802734375,-0.31001409888267517,-1.2148582935333252,-1.9364428520202637
1713800435516967700,14.5949677734375,0.00809396430850029,-1.2518155574798584,-2.0118846893310547
1713800435534687700,14.612687744140626,0.23197607696056366,-0.9405797719955444,-2.007455825805664
1713800435552416500,14.63041650390625,0.3880521357059479,-0.9500481486320496,-1.9758436679840088
1713800435570137900,14.648137939453125,0.46822822093963623,-1.079246163368225,-1.9636263847351074
1713800435587860000,14.66585986328125,0.48579058051109314,-1.0106765031814575,-1.9362901449203491
1713800435605579000,14.6835791015625,0.5012149214744568,-0.9857838153839111,-1.9029979705810547
1713800435623307500,14.7013076171875,0.5316054821014404,-1.0421360731124878,-1.8486309051513672
1713800435641023700,14.719023681640625,0.5952881574630737,-0.9928087592124939,-1.8570303916931152
1713800435658751700,14.736751708984375,0.794277548789978,-0.8345946669578552,-1.8452712297439575
1713800435676471300,14.75447119140625,0.9040805697441101,-0.7932085394859314,-1.721112847328186
1713800435694193000,14.77219287109375,0.8246681094169617,-0.9033169746398926,-1.6129896640777588
1713800435711915300,14.789915283203126,0.7441865801811218,-0.8907942175865173,-1.4815009832382202
1713800435729638100,14.80763818359375,0.7380779385566711,-0.8633053302764893,-1.142012596130371
1713800435747360300,14.8253603515625,0.7382306456565857,-1.004873275756836,-0.769079327583313
1713800435765081900,14.843081787109375,0.6099489331245422,-1.2348641157150269,-0.5183191895484924
1713800435782804500,14.860804443359376,0.4121813178062439,-1.265865445137024,-0.3880521357059479
1713800435800526600,14.878526611328125,0.2733621895313263,-1.1044443845748901,-0.26083946228027344
1713800435818243000,14.8962431640625,0.2431243658065796,-0.6201809644699097,-0.036193765699863434
1713800435835971800,14.913971923828125,0.2561052441596985,-0.18280142545700073,0.45723262429237366
1713800435853688800,14.931688720703125,-0.1368338167667389,0.19028452038764954,0.935081958770752
1713800435871415600,14.94941552734375,-0.565203070640564,0.835358202457428,1.5280793905258179
1713800435889138000,14.967137939453124,-0.6713408827781677,1.1835514307022095,2.3073906898498535
1713800435906858200,14.984858154296875,-0.5951354503631592,1.394299864768982,3.2762229442596436
1713800435924585200,15.002585205078125,-0.745408296585083,1.404073715209961,3.3380730152130127
1713800435942302200,15.02030224609375,-0.9816604256629944,1.4373658895492554,2.5085182189941406
1713800435960026600,15.038026611328124,-1.2738068103790283,0.9088147878646851,2.3208298683166504
1713800435977748200,15.055748291015625,-1.517236590385437,0.8837692737579346,2.604271173477173
1713800435995470800,15.073470947265625,-1.3700180053710938,0.5177083015441895,2.539977788925171
1713800436013193200,15.091193115234375,-1.1815661191940308,0.11759155988693237,2.4405593872070312
1713800436030915600,15.10891552734375,-1.1094839572906494,0.03955352306365967,2.1285598278045654
1713800436048637700,15.1266376953125,-1.275792121887207,1.3213015794754028,1.8976528644561768
1713800436066359800,15.14435986328125,-1.397048830986023,2.0558669567108154,1.9509508609771729
1713800436084082000,15.16208203125,-1.2915217876434326,2.249816656112671,1.9880609512329102
1713800436101804500,15.179804443359375,-0.9900598526000977,2.397493362426758,1.7369953393936157
1713800436119521300,15.197521240234375,-0.8527678847312927,2.7311785221099854,1.401477575302124
1713800436137247200,15.215247314453125,-0.8385652899742126,2.9709432125091553,1.036943793296814
1713800436154972200,15.23297216796875,-0.779464066028595,2.9184086322784424,0.6511823534965515
1713800436172689000,15.25068896484375,-0.6954700946807861,2.5780041217803955,0.2669481039047241
1713800436190414800,15.268414794921876,-0.5268712639808655,2.015855312347412,-0.1670716404914856
1713800436208136400,15.286136474609375,-0.3332269787788391,1.4622586965560913,-0.7218900322914124
1713800436225860600,15.303860595703124,-0.12034045159816742,1.1381946802139282,-1.3379476070404053
1713800436243582000,15.32158203125,0.021380282938480377,0.7124215960502625,-1.9494236707687378
1713800436261303800,15.3393037109375,-0.09697485715150833,0.37598755955696106,-2.3831379413604736
1713800436279021600,15.357021484375,-0.37598755955696106,0.6959282159805298,-1.7481436729431152
1713800436296748000,15.374748046875,-0.21349740028381348,1.3060299158096313,-0.1186605766415596
1713800436314469600,15.3924697265625,0.11178833991289139,0.9731083512306213,0.9549350738525391
1713800436332193500,15.410193603515625,-0.2684752643108368,0.6672175526618958,1.2733485698699951
1713800436349915100,15.4279150390625,-0.2324342280626297,0.5621487498283386,1.044274091720581
1713800436367637800,15.4456376953125,0.03527746722102165,0.6183483600616455,0.5607742667198181
1713800436385359600,15.463359619140626,0.4723515510559082,0.44577890634536743,0.031154127791523933
1713800436403081200,15.481081298828125,0.8597928285598755,-0.4014911949634552,0.021380282938480377
1713800436420799200,15.49879931640625,0.5674937963485718,-0.5381723046302795,-0.5129740834236145
1713800436438525700,15.516525634765625,0.49877145886421204,-0.5887213945388794,-0.2736676335334778
1713800436456247300,15.534247314453125,0.841619610786438,-2.5166120529174805,-0.7849618196487427
1713800436473969400,15.551969482421875,0.655458390712738,-3.4521522521972656,-1.4450017213821411
1713800436491688000,15.56968798828125,0.15531249344348907,-3.25209379196167,-2.2690589427948
1713800436509401900,15.58740185546875,-0.18020524084568024,-2.3011293411254883,-2.4605650901794434
1713800436527138800,15.605138916015624,-0.42928555607795715,-1.03037691116333,-1.8695530891418457
1713800436544859100,15.622859130859375,-0.34284812211990356,-0.7904596328735352,-1.9436204433441162
1713800436562581800,15.640581787109374,-0.027641652151942253,-0.5070181488990784,-2.0958786010742188
1713800436580302600,15.658302490234375,0.3747658133506775,-0.3805690407752991,-2.013106346130371
1713800436598027300,15.67602734375,0.4841107130050659,-0.35033121705055237,-1.8959729671478271
1713800436615747800,15.693747802734375,0.4331034719944,-0.5820018649101257,-1.9341521263122559
1713800436633470500,15.711470458984374,0.33887749910354614,-0.7626652717590332,-1.9555323123931885
1713800436651192600,15.729192626953125,0.23136521875858307,-0.9291260242462158,-2.0219640731811523
1713800436668910600,15.74691064453125,0.2451096773147583,-1.1215485334396362,-1.975232720375061
1713800436686637000,15.764636962890625,0.4703662395477295,-1.231046199798584,-1.8080084323883057
1713800436704359700,15.782359619140625,0.6075055003166199,-1.0297660827636719,-1.6449073553085327
1713800436722081500,15.80008154296875,0.7820602059364319,-0.8011497855186462,-1.5628987550735474
1713800436739804200,15.81780419921875,0.9558513760566711,-0.6133087277412415,-1.5180001258850098
1713800436757526500,15.835526611328126,0.9891435503959656,-0.5300782918930054,-1.5140295028686523
1713800436775245800,15.853245849609374,0.8203920125961304,-0.708450973033905,-1.4193453788757324
1713800436792965000,15.870965087890625,0.5575672388076782,-0.9027060866355896,-1.0406090021133423
1713800436810689800,15.888689697265624,0.42409318685531616,-1.214094638824463,-0.6959282159805298
1713800436828414500,15.90641455078125,0.39416080713272095,-1.5332717895507812,-0.4586070775985718
1713800436846137000,15.92413720703125,0.3700316250324249,-1.1908818483352661,-0.29733866453170776
1713800436863854300,15.941854248046875,0.3019201457500458,-0.5826127529144287,-0.10735956579446793
1713800436881580500,15.95958056640625,0.33017265796661377,-0.24862214922904968,0.33337971568107605
1713800436899304400,15.977304443359374,0.1898263692855835,-0.011759156361222267,0.9469938278198242
1713800436917025500,15.995025634765625,-0.304669052362442,0.22082778811454773,1.517236590385437
1713800436934748000,16.012747802734374,-0.7063129544258118,0.46761733293533325,2.286163091659546
1713800436952461000,16.0304609375,-0.997848391532898,1.0641272068023682,2.975677251815796
1713800436970189800,16.04818994140625,-1.2386820316314697,1.7156150341033936,2.674673557281494
1713800436987914500,16.06591455078125,-1.3912456035614014,2.1120665073394775,2.1487185955047607
1713800437005637400,16.083637451171874,-1.4046846628189087,2.462244987487793,2.4668266773223877
1713800437023359200,16.101359130859375,-1.2785409688949585,1.898416519165039,2.615114212036133
1713800437041080800,16.119080810546876,-0.9469938278198242,0.6247624158859253,2.777756929397583
1713800437058803200,16.13680322265625,-0.755182147026062,0.15363261103630066,2.8518242835998535
1713800437076525600,16.154525634765626,-0.7531968355178833,-0.5354233980178833,2.6371052265167236
1713800437094246700,16.17224658203125,-0.8020660877227783,-0.39584067463874817,2.6928467750549316
1713800437111970800,16.189970703125,-0.8426886200904846,0.3306308090686798,2.378098487854004
1713800437129687600,16.2076875,-0.8141306638717651,1.3628404140472412,2.2437081336975098
1713800437147414500,16.22541455078125,-0.6436992287635803,2.1736111640930176,2.2348504066467285
1713800437165132000,16.243132080078126,-0.593302845954895,2.8425087928771973,2.107027053833008
1713800437182858800,16.260858642578125,-0.46593746542930603,3.003929853439331,1.803274154663086
1713800437200581400,16.278581298828126,-0.3010038435459137,2.9162707328796387,1.318858027458191
1713800437218303200,16.29630322265625,-0.2616030275821686,2.6786441802978516,0.6404922008514404
1713800437236025300,16.314025390625,-0.20036379992961884,2.2986860275268555,-0.036193765699863434
1713800437253747500,16.33174755859375,-0.25076019763946533,1.8723019361495972,-0.7848091125488281
1713800437271470000,16.349469970703126,-0.29917123913764954,1.1705704927444458,-1.6120734214782715
1713800437289192000,16.36719189453125,-0.3228422701358795,0.375071257352829,-2.328160047531128
1713800437306914600,16.38491455078125,-0.5699372887611389,0.07254024595022202,-2.431701898574829
1713800437324635600,16.4026357421875,-0.6582072973251343,0.9773843884468079,-1.1661417484283447
1713800437342359800,16.42035986328125,-0.08659014850854874,1.8179349899291992,0.19822576642036438
1713800437360081000,16.438080810546875,0.13087788224220276,1.0044151544570923,1.398576021194458
1713800437377803000,16.455802978515624,-0.42638394236564636,0.7333437204360962,1.2240211963653564
1713800437395524900,16.47352490234375,-0.3355177342891693,0.20601430535316467,0.7113525867462158
1713800437413246200,16.49124609375,0.289702832698822,-0.28267788887023926,0.45463645458221436
1713800437430971000,16.508970947265624,0.8345946669578552,-0.16951510310173035,0.7776314616203308
1713800437448687600,16.5266875,1.0286970138549805,-0.3773620128631592,0.4132503271102905
1713800437466409200,16.5444091796875,1.0651962757110596,-0.48426342010498047,-0.11575896292924881
1713800437484136000,16.562135986328126,1.2855658531188965,-2.2069034576416016,-1.0241155624389648
1713800437501858300,16.5798583984375,1.0563386678695679,-2.928182601928711,-1.1447614431381226
1713800437519580700,16.59758056640625,0.3066543638706207,-3.528815746307373,-2.174069404602051
1713800437537302800,16.615302734375,-0.03298672288656235,-2.655125856399536,-2.644282817840576
1713800437555023600,16.633023681640626,-0.19685132801532745,-1.1339186429977417,-1.941482424736023
1713800437572748500,16.65074853515625,-0.22800545394420624,-1.0021244287490845,-2.0193676948547363
1713800437590474200,16.66847412109375,-0.19120082259178162,-0.9761626720428467,-2.188730239868164
1713800437608191500,16.68619140625,0.0734565481543541,-0.636521577835083,-2.2073614597320557
1713800437625897700,16.703897705078123,0.32528573274612427,-0.3553708493709564,-2.1345160007476807
1713800437643636500,16.721636474609376,0.346818745136261,-0.11514809727668762,-2.2314908504486084
1713800437661358300,16.7393583984375,0.2790127098560333,0.18188512325286865,-2.146275043487549
1713800437679080400,16.75708056640625,0.36224308609962463,-0.22907446324825287,-2.144442558288574
1713800437696802600,16.774802490234375,0.39446622133255005,-0.43997567892074585,-1.9830212593078613
1713800437714524400,16.7925244140625,0.3917173445224762,-0.3926336467266083,-1.7153096199035645
1713800437732247300,16.810247314453125,0.4086688458919525,-0.49877145886421204,-1.5457944869995117
1713800437749970400,16.827970458984375,0.5335907936096191,-0.7286095023155212,-1.3997976779937744
1713800437767687000,16.84568701171875,0.6641632318496704,-0.7049384713172913,-1.2852604389190674
1713800437785413600,16.86341357421875,0.7493789196014404,-0.669355571269989,-1.2169963121414185
1713800437803136300,16.88113623046875,0.7666358947753906,-0.7118107080459595,-1.253190040588379
1713800437820857600,16.898857666015626,0.7351763248443604,-0.6253733038902283,-1.1285735368728638
1713800437838575400,16.916575439453126,0.5775730609893799,-0.6194173693656921,-0.9288206100463867
1713800437856301300,16.93430126953125,0.45524731278419495,-0.6235406994819641,-0.7275404930114746
1713800437874023200,16.952023193359373,0.4573853611946106,-0.6282749176025391,-0.4086688458919525
1713800437891749600,16.96974951171875,0.4749477207660675,-0.4495968222618103,-0.09743300825357437
1713800437909468700,16.98746875,0.5616905689239502,-0.2542726695537567,0.27947086095809937
1713800437927190300,17.005190185546876,0.44028112292289734,-0.06475171446800232,0.8875871896743774
1713800437944912100,17.022912109375,-0.08949175477027893,0.32528573274612427,1.3144292831420898
1713800437962638800,17.040638916015624,-0.3646865487098694,0.8655960559844971,2.129934310913086
1713800437980358000,17.05835791015625,-0.6047565937042236,1.7241671085357666,2.828306198120117
1713800437998080000,17.076080078125,-1.0399980545043945,2.5387558937072754,2.813339948654175
1713800438015802600,17.093802734375,-1.3584115505218506,2.898250102996826,2.2006421089172363
1713800438033524500,17.1115244140625,-1.5138767957687378,2.501645803451538,2.1700987815856934
1713800438051245600,17.12924560546875,-1.4883731603622437,2.0567831993103027,2.4045183658599854
1713800438068966000,17.1469658203125,-1.238071084022522,2.034639358520508,2.644282817840576
1713800438086687000,17.16468701171875,-1.070388674736023,0.8727737069129944,2.39520263671875
1713800438104412200,17.182412109375,-1.049924612045288,0.22250767052173615,2.444988250732422
1713800438122136600,17.200136474609376,-1.049924612045288,0.342695415019989,2.4210116863250732
1713800438139852800,17.217852783203124,-1.122159481048584,1.3800972700119019,1.9628627300262451
1713800438157580300,17.235580322265626,-1.2484558820724487,2.099849224090576,1.859321117401123
1713800438175301600,17.253301513671875,-1.260367751121521,2.434450626373291,1.786780834197998
1713800438193024500,17.2710244140625,-1.155909776687622,2.850908041000366,1.5859588384628296
1713800438210746400,17.288746337890625,-0.9074403047561646,3.106707811355591,1.3046554327011108
1713800438228467700,17.3064677734375,-0.7451028823852539,3.1693215370178223,0.9433286786079407
1713800438246191600,17.324191650390624,-0.6944010853767395,2.9013044834136963,0.4948008358478546
1713800438263912700,17.34191259765625,-0.6276640295982361,2.4332289695739746,-0.038026362657547
1713800438281635800,17.3596357421875,-0.502436637878418,1.905441403388977,-0.5786421298980713
1713800438299357700,17.377357666015627,-0.3289509415626526,1.5564846992492676,-1.0963504314422607
1713800438317079300,17.395079345703124,-0.44028112292289734,1.4752395153045654,-1.4679092168807983
1713800438334802000,17.412802001953125,-0.631481945514679,1.8632917404174805,-0.894001305103302
1713800438352524300,17.430524169921874,-0.6609562039375305,1.8141170740127563,0.5778785347938538
1713800438370245400,17.448245361328127,-0.003054326167330146,1.3535246849060059,1.0015136003494263
1713800438387969300,17.46596923828125,0.12660181522369385,1.2090550661087036,1.2594513893127441
1713800438405685800,17.483685791015624,-0.0377209298312664,1.4498887062072754,1.2252429723739624
1713800438423412700,17.501412841796874,-0.04749477282166481,1.6507105827331543,1.1201741695404053
1713800438441130800,17.519130859375,0.2099849283695221,1.6126842498779297,1.1676689386367798
1713800438458852900,17.536852783203123,0.6136141419410706,1.4792101383209229,1.3991868495941162
1713800438476579300,17.554579345703125,0.6669121384620667,0.6806566119194031,1.2863295078277588
1713800438494301400,17.572301513671874,0.37140607833862305,-0.8993463516235352,-0.65958172082901
1713800438512019200,17.590019287109374,0.40225476026535034,-2.193617105484009,-2.0218112468719482
1713800438529744400,17.607744384765624,0.2255619913339615,-2.662761688232422,-1.1659890413284302
1713800438547469300,17.62546923828125,0.20097467303276062,-3.698330879211426,-2.5190556049346924
1713800438565190000,17.64318994140625,0.32818734645843506,-2.7563767433166504,-2.8715248107910156
1713800438582912800,17.660912841796875,-0.2646573781967163,-0.9973902106285095,-2.0332648754119873
1713800438600637400,17.678637451171873,-0.6009386777877808,-1.0433578491210938,-2.4129176139831543
1713800438618354000,17.69635400390625,-0.6146831512451172,-1.5383113622665405,-2.7030787467956543
1713800438636078600,17.71407861328125,-0.3804163336753845,-1.3990341424942017,-2.660928964614868
1713800438653801700,17.7318017578125,0.11133018881082535,-0.7683157324790955,-2.599078893661499
1713800438671523000,17.749523193359376,0.30695977807044983,-0.3162754774093628,-2.512183427810669
1713800438689244400,17.767244384765625,0.244804248213768,-0.3400992155075073,-2.5534167289733887
1713800438706968800,17.78496875,0.16371189057826996,-0.5502368807792664,-2.4243714809417725
1713800438724685800,17.802685791015627,0.2606867551803589,-0.6962336897850037,-2.23897385597229
1713800438742406700,17.82040673828125,0.4990769028663635,-0.6107125282287598,-2.02929425239563
1713800438760134400,17.838134521484374,0.6197227835655212,-0.44196099042892456,-1.9181169271469116
1713800438777856300,17.855856201171875,0.5467243790626526,-0.7961101531982422,-1.8443548679351807
1713800438795579400,17.873579345703124,0.45295658707618713,-1.010829210281372,-1.7768542766571045
1713800438813296000,17.891296142578124,0.4437935948371887,-0.8593347072601318,-1.5777121782302856
1713800438831023600,17.909023681640626,0.502436637878418,-0.6963863968849182,-1.4844025373458862
1713800438848745500,17.926745361328123,0.5992587804794312,-0.6177374720573425,-1.2341004610061646
1713800438866467800,17.9444677734375,0.5829181671142578,-0.8888089060783386,-0.7348709106445312
1713800438884189700,17.962189697265625,0.40164390206336975,-1.2030991315841675,-0.46334129571914673
1713800438901911300,17.979911376953126,0.23777928948402405,-1.277166485786438,-0.27870726585388184
1713800438919636200,17.99763623046875,0.18448130786418915,-0.9657779335975647,-0.10965031385421753
1713800438937357000,18.015357177734376,0.19746218621730804,-0.5531384944915771,0.23273965716362
1713800438955078700,18.03307861328125,0.010079276748001575,0.20494529604911804,0.8147414922714233
1713800438972801000,18.050801025390626,-0.3455969989299774,0.5830708742141724,1.3318389654159546
1713800438990523400,18.0685234375,-0.4427245855331421,1.1380419731140137,2.403143882751465
1713800439008244500,18.086244384765624,-0.7947356700897217,1.6920967102050781,3.3932037353515625
1713800439025966600,18.103966552734374,-1.1870639324188232,2.0059287548065186,3.1557297706604004
1713800439043687400,18.1216875,-1.3628404140472412,2.2232439517974854,2.490497589111328
1713800439061412000,18.139412109375,-1.4442381858825684,1.8816176652908325,2.5897631645202637
1713800439079135000,18.157135009765625,-1.326035737991333,1.3953689336776733,3.0802879333496094
1713800439096856600,18.174856689453126,-1.1146763563156128,0.14614951610565186,2.955824136734009
1713800439114582000,18.19258203125,-0.8161159753799438,-0.6322455406188965,2.6699392795562744
1713800439132297700,18.210297607421875,-0.6194173693656921,-0.6724098920822144,2.4767532348632812
1713800439150023700,18.228023681640625,-0.6701191663742065,0.9347765445709229,2.17437481880188
1713800439167745500,18.24574560546875,-0.9666942358016968,2.0984747409820557,2.208735942840576
1713800439185463000,18.263463134765626,-0.99876469373703,2.303420066833496,2.3568708896636963
1713800439203190000,18.28118994140625,-0.9425650835037231,2.4666738510131836,2.1259636878967285
1713800439220912400,18.298912353515625,-0.8139779567718506,2.3684773445129395,1.6972891092300415
1713800439238634500,18.316634521484374,-0.7079927921295166,2.286621332168579,1.215927243232727
1713800439256356600,18.334356689453124,-0.6783658266067505,2.1507039070129395,0.593302845954895
1713800439274079000,18.352078857421876,-0.5899431109428406,1.9631681442260742,-0.08506298810243607
1713800439291801600,18.369801513671874,-0.46211954951286316,1.4288138151168823,-0.7367035150527954
1713800439309523000,18.38752294921875,-0.40973785519599915,0.8126034736633301,-1.3451253175735474
1713800439327244500,18.40524462890625,-0.36529740691185,0.43508878350257874,-1.8952094316482544
1713800439344969000,18.422968994140625,-0.3978259861469269,0.44516804814338684,-2.215913772583008
1713800439362685700,18.440685791015625,-0.2600758671760559,1.0355693101882935,-1.4816536903381348
1713800439380412200,18.458412109375,0.1007927656173706,1.7493653297424316,0.7257078886032104
1713800439398134800,18.476134765625,0.10995574295520782,1.4654656648635864,1.6003142595291138
1713800439415857000,18.49385693359375,-0.3729332387447357,1.7762434482574463,1.7062993049621582
1713800439433579500,18.51157958984375,-0.35873061418533325,1.8223637342453003,1.5134186744689941
1713800439451301000,18.529301025390627,-0.285121351480484,0.8497135639190674,1.0728321075439453
1713800439469022000,18.54702197265625,-0.07788532227277756,-0.08811730891466141,0.4346306324005127
1713800439486741000,18.564740966796876,0.45234572887420654,-0.9556986689567566,0.15134187042713165
1713800439504467200,18.58246728515625,0.2681698501110077,-1.0198395252227783,-0.06612616032361984
1713800439522191400,18.60019140625,0.8145887851715088,-1.3658946752548218,-0.7041749358177185
1713800439539912700,18.61791259765625,1.3857477903366089,-1.7440202236175537,-1.1163562536239624
1713800439557635000,18.635635009765625,1.3716979026794434,-3.1694743633270264,-1.4080443382263184
1713800439575356400,18.6533564453125,0.9088147878646851,-3.8560869693756104,-3.031877040863037
1713800439593080000,18.671080078125,0.3387247920036316,-3.0104966163635254,-2.6250407695770264
1713800439610801400,18.688801513671876,-0.28206703066825867,-1.3266465663909912,-1.8376353979110718
1713800439628523800,18.706523681640626,-0.3793473243713379,-1.2289081811904907,-2.323120594024658
1713800439646244600,18.72424462890625,-0.17592918872833252,-1.3266465663909912,-2.615725040435791
1713800439663969300,18.74196923828125,0.11209376901388168,-0.9028588533401489,-2.518444776535034
1713800439681685500,18.759685546875,0.3199406862258911,-0.30634891986846924,-2.3441953659057617
1713800439699413000,18.7774130859375,0.42302417755126953,-0.3787364661693573,-2.2992968559265137
1713800439717135000,18.795135009765627,0.36010506749153137,-0.11209376901388168,-2.325411319732666
1713800439734857200,18.812857177734376,0.19135354459285736,-0.166460782289505,-2.4000895023345947
1713800439752579300,18.830579345703125,0.23900102078914642,-0.3727805018424988,-2.1930062770843506
1713800439770301700,18.8483017578125,0.3582724630832672,-0.40744712948799133,-2.101376533508301
1713800439788019700,18.866019775390626,0.5482515692710876,-0.5221370458602905,-1.8515325784683228
1713800439805746200,18.88374609375,0.7281513810157776,-0.849255383014679,-1.6308574676513672
1713800439823468300,18.90146826171875,0.8512406945228577,-0.977689802646637,-1.4819591045379639
1713800439841191000,18.91919091796875,0.8866708874702454,-0.9298896193504333,-1.4738651514053345
1713800439858908700,18.93690869140625,0.8184067010879517,-0.9480628371238708,-1.3565789461135864
1713800439876635000,18.954634765625,0.6389650702476501,-1.1340713500976562,-1.1116219758987427
1713800439894358800,18.97235888671875,0.37491855025291443,-1.3048081398010254,-0.7634288668632507
1713800439912080400,18.990080322265626,0.16050484776496887,-1.254717230796814,-0.45402559638023376
1713800439929790500,19.00779052734375,0.04612032696604729,-0.9108000993728638,-0.06505715101957321
1713800439947523300,19.0255234375,0.08002334833145142,-0.6328563690185547,0.6217080950737
1713800439965247000,19.0432470703125,0.07635815441608429,-0.32299500703811646,1.7566957473754883
1713800439982970400,19.060970458984375,-0.4360050559043884,0.0682641938328743,2.4277312755584717
1713800440000686800,19.078686767578127,-0.7761042714118958,0.654542088508606,3.1395418643951416
1713800440018413300,19.096413330078125,-1.0632109642028809,1.7791450023651123,3.0752482414245605
1713800440036136200,19.11413623046875,-1.4199562072753906,2.5340218544006348,2.2009475231170654
1713800440053858600,19.131858642578123,-1.5010485649108887,2.813645362854004,2.517681121826172
1713800440071581000,19.149580810546876,-1.544114589691162,2.298074960708618,2.8293750286102295
1713800440089302500,19.167302490234373,-1.2510520219802856,1.0557278394699097,2.9329166412353516
1713800440107025200,19.185025146484374,-0.9127854108810425,0.3530801236629486,3.1467196941375732
1713800440124747500,19.20274755859375,-0.9104946255683899,0.3425426781177521,2.810743808746338
1713800440142463700,19.220463623046875,-0.9550877809524536,-0.022907447069883347,2.7450757026672363
1713800440160189400,19.238189453125,-0.8206974864006042,0.41202861070632935,2.358550786972046
1713800440177914400,19.255914306640626,-0.856433093547821,0.8626944422721863,2.007303237915039
1713800440195637000,19.273636962890624,-0.7793113589286804,1.4033101797103882,1.903608798980713
1713800440213355500,19.29135546875,-0.7099781036376953,2.2233967781066895,1.6939293146133423
1713800440231084800,19.309084716796875,-0.4132503271102905,2.5813639163970947,1.4758504629135132
1713800440248802300,19.32680224609375,-0.06841690838336945,2.615266799926758,1.1748465299606323
1713800440266527200,19.34452734375,0.01924225501716137,2.727818727493286,0.6398813724517822
1713800440284247300,19.362247314453125,0.024434609338641167,2.6395487785339355,-0.016798794269561768
1713800440301971500,19.379971435546874,-0.10537425428628922,2.3095288276672363,-0.8358163833618164
1713800440319688000,19.39768798828125,-0.3095559775829315,1.5995506048202515,-1.6815593242645264
1713800440337415000,19.415414794921876,-0.5500841736793518,0.6589708924293518,-2.238515615463257
1713800440355137500,19.433137451171874,-0.6867652535438538,0.2814561724662781,-1.5558737516403198
1713800440372859400,19.450859375,-0.34147366881370544,1.017396092414856,-0.01664607785642147
1713800440390581800,19.468581787109375,0.04642575979232788,1.4338533878326416,1.179580807685852
1713800440408304000,19.48630419921875,0.08124507963657379,0.7386888265609741,1.297019600868225
1713800440426026800,19.50402685546875,-0.15760323405265808,0.12828169763088226,0.7777841687202454
1713800440443748600,19.52174853515625,-0.03573561832308769,0.9731083512306213,0.6641632318496704
1713800440461471200,19.53947119140625,0.4583016633987427,1.417970895767212,1.0154107809066772
1713800440479193000,19.557193115234377,0.7622070908546448,-0.40103304386138916,0.46242499351501465
1713800440496916000,19.574916015625,0.1563815027475357,-1.4958562850952148,-0.29565876722335815
1713800440514637000,19.592636962890627,0.665232241153717,-2.1197023391723633,-1.5369369983673096
1713800440532361200,19.610361328125,1.4691308736801147,-1.948354721069336,-0.9459248185157776
1713800440550082600,19.62808251953125,1.5783231258392334,-2.799595355987549,-1.4909693002700806
1713800440567805000,19.645804931640626,1.3197743892669678,-2.922684669494629,-2.9738447666168213
1713800440585526800,19.66352685546875,0.38606682419776917,-2.297616958618164,-2.49294114112854
1713800440603248000,19.681248046875,-0.42042800784111023,-2.0053179264068604,-2.1852176189422607
1713800440620971800,19.6989716796875,-0.7735081315040588,-1.9289597272872925,-2.5219571590423584
1713800440638690800,19.71669091796875,-0.66584312915802,-1.4466816186904907,-2.757598400115967
1713800440656416000,19.734416015625,-0.28557950258255005,-0.9379835724830627,-2.680476665496826
1713800440674138600,19.752138671875,0.0734565481543541,-0.4634940028190613,-2.370309829711914
1713800440691861000,19.769861083984374,0.2974913716316223,-0.21563543379306793,-2.261575937271118
1713800440709583400,19.787583251953127,0.3885102868080139,-0.2744311988353729,-2.350609540939331
1713800440727305500,19.805305419921876,0.4308127164840698,-0.44089198112487793,-2.255467176437378
1713800440745027600,19.823027587890625,0.5728389024734497,-0.7761042714118958,-2.0615174770355225
1713800440762745300,19.840745361328125,0.7014260292053223,-0.6598871946334839,-1.7941112518310547
1713800440780472800,19.858472900390623,0.7246388792991638,-0.5827654600143433,-1.5346461534500122
1713800440798194200,19.876194091796876,0.6537785530090332,-0.9728028774261475,-1.4329371452331543
1713800440815917000,19.8939169921875,0.5630650520324707,-1.136362075805664,-1.458898901939392
1713800440833634300,19.91163427734375,0.5482515692710876,-1.050840973854065,-1.3829989433288574
1713800440851360800,19.92936083984375,0.5531384944915771,-0.9306532144546509,-1.1571314334869385
1713800440869084400,19.94708447265625,0.5161811113357544,-0.9671524167060852,-0.9283624291419983
1713800440886806300,19.96480615234375,0.49296826124191284,-1.2463178634643555,-0.6239988207817078
1713800440904527400,19.98252734375,0.47021353244781494,-1.4016302824020386,-0.36789360642433167
1713800440922250800,20.000250732421875,0.33276882767677307,-1.1649199724197388,-0.16508632898330688
1713800440939974000,20.017973876953125,0.21044307947158813,-0.5474879741668701,0.23884831368923187
1713800440957691400,20.03569140625,0.09346238523721695,0.12461651116609573,1.1284208297729492
1713800440975417600,20.05341748046875,-0.4967861473560333,0.40882155299186707,1.819920301437378
1713800440993140500,20.071140380859376,-1.03037691116333,0.7484626173973083,2.735759973526001
1713800441010856200,20.088856201171875,-1.238223910331726,1.7511979341506958,3.2600350379943848
1713800441028585000,20.1065849609375,-1.441641926765442,2.819295883178711,2.6448938846588135
1713800441046306600,20.124306640625,-1.4060590267181396,3.1581733226776123,2.1516201496124268
1713800441064029700,20.14202978515625,-1.3480268716812134,2.534785270690918,2.504394769668579
1713800441081756700,20.159756591796874,-1.1606439352035522,1.4104878902435303,2.94269061088562
1713800441099474000,20.177473876953126,-0.903164267539978,-0.8816312551498413,2.6500861644744873
1713800441117196000,20.195196044921875,-0.6571382880210876,-0.9144652485847473,2.9261972904205322
1713800441134914300,20.212914306640624,-0.7953465580940247,-0.6849326491355896,2.328007459640503
1713800441152640800,20.230640869140625,-1.0322095155715942,0.712574303150177,1.9350683689117432
1713800441170363100,20.248363037109375,-1.288467526435852,1.8087719678878784,2.001194477081299
1713800441188085500,20.26608544921875,-1.1604912281036377,2.2041544914245605,2.1065688133239746
1713800441205803000,20.283802978515624,-1.074512004852295,2.207819700241089,1.8836029767990112
1713800441223528400,20.301528564453125,-0.9411906003952026,2.539824962615967,1.5184582471847534
1713800441241252400,20.31925244140625,-0.6786713004112244,2.8202121257781982,1.2067643404006958
1713800441258972400,20.336972412109375,-0.44089198112487793,2.635272741317749,0.7250970602035522
1713800441276692700,20.354692626953124,-0.3640756905078888,2.4775166511535645,0.1469130963087082
1713800441298851000,20.37685107421875,-0.23625212907791138,1.9593502283096313,-0.6426302194595337
1713800441316572700,20.39457275390625,-0.16508632898330688,1.6966781616210938,-1.1928671598434448
1713800441334286800,20.412286865234375,-0.22876903414726257,1.4604260921478271,-1.6827809810638428
1713800441352018700,20.430018798828126,-0.4764748811721802,1.1940888166427612,-1.0827586650848389
1713800441369741000,20.447740966796875,-0.3591887652873993,1.5106697082519531,0.25534167885780334
1713800441387463200,20.465463134765624,0.3017674386501312,1.5966490507125854,0.543059229850769
1713800441405185500,20.483185546875,0.08689557760953903,1.2710578441619873,1.4485142230987549
1713800441422909000,20.500908935546875,-0.46639561653137207,1.2750284671783447,1.4355332851409912
1713800441440630300,20.51863037109375,-0.28725937008857727,0.7527387142181396,0.8637634515762329
1713800441458352400,20.536352294921876,0.3332269787788391,0.3179553747177124,0.4505131244659424
1713800441476074800,20.55407470703125,0.7759515643119812,-0.5010622143745422,0.5380195379257202
1713800441493798100,20.571798095703127,0.49464812874794006,-1.532508134841919,0.5224425196647644
1713800441511519200,20.589519287109376,0.751669704914093,-1.2560917139053345,-0.45326200127601624
1713800441529240600,20.607240478515624,1.1546880006790161,-1.7812830209732056,-1.054964303970337
1713800441546965000,20.624965087890626,0.38606682419776917,-3.7252089977264404,-1.6491833925247192
1713800441564683000,20.64268310546875,-0.30283644795417786,-4.34096097946167,-3.598149061203003
1713800441582408200,20.660408203125,-0.40194934606552124,-2.746908187866211,-2.966972589492798
1713800441600126500,20.67812646484375,-0.4599815309047699,-0.3150537610054016,-2.0305161476135254
1713800441617853200,20.695853271484374,-0.2955060601234436,-0.13454307615756989,-2.400394916534424
1713800441635576600,20.71357666015625,0.09682214260101318,-0.4787656366825104,-2.509739875793457
1713800441653298000,20.7312978515625,0.5070181488990784,-0.5203045010566711,-2.3996315002441406
1713800441671020000,20.74902001953125,0.6586654782295227,-0.42119157314300537,-2.246609687805176
1713800441688742100,20.7667421875,0.5545129179954529,-0.6820310354232788,-2.246609687805176
1713800441706465800,20.7844658203125,0.5760459303855896,-0.8600982427597046,-2.20278000831604
1713800441724187100,20.802187255859376,0.5054910182952881,-0.802524209022522,-2.1226038932800293
1713800441741909200,20.8199091796875,0.4193589985370636,-0.9382890462875366,-2.0775527954101562
1713800441759631400,20.83763134765625,0.52702397108078,-1.0497719049453735,-1.967902421951294
1713800441777354800,20.855354736328124,0.5984952449798584,-0.9033169746398926,-1.8723019361495972
1713800441795075800,20.873075927734376,0.6400340795516968,-0.7383833527565002,-1.7275269031524658
1713800441812798500,20.890798583984374,0.6676757335662842,-0.7739662528038025,-1.616654872894287
1713800441830520800,20.908520751953127,0.6687447428703308,-0.7878634333610535,-1.4633276462554932
1713800441848243000,20.926242919921876,0.703411340713501,-0.817337691783905,-1.190423607826233
1713800441865966300,20.94396630859375,0.7626652717590332,-1.2131783962249756,-0.8736900091171265
1713800441883683300,20.961683349609373,0.6811147332191467,-1.523956060409546,-0.536797821521759
1713800441901405200,20.9794052734375,0.39706242084503174,-1.2316570281982422,-0.3376557528972626
1713800441919133200,20.99713330078125,0.09178250283002853,-0.6366742849349976,-0.18280142545700073
1713800441936854300,21.014854248046873,0.07147123664617538,-0.23167064785957336,0.35643985867500305
1713800441954575400,21.032575439453126,-0.04856378585100174,0.23151792585849762,1.260367751121521
1713800441972299800,21.0502998046875,-0.670577347278595,0.3222314119338989,1.9144517183303833
1713800441990021000,21.068021240234376,-0.9156870245933533,0.9424123764038086,2.914438009262085
1713800442007744800,21.085744873046874,-1.0044151544570923,2.157728672027588,3.090061902999878
1713800442025465900,21.1034658203125,-1.192256212234497,2.5754079818725586,2.5474607944488525
1713800442043188000,21.12118798828125,-1.222494125366211,1.8078557252883911,2.6340508460998535
1713800442060911400,21.138911376953125,-1.2638801336288452,0.969443142414093,2.785698175430298
1713800442078633000,21.156633056640626,-1.2286027669906616,0.11209376901388168,2.8076894283294678
1713800442096355000,21.17435498046875,-1.028544306755066,0.04260785132646561,2.8649580478668213
1713800442114077200,21.1920771484375,-0.9885326623916626,-0.2151772826910019,2.392911911010742
1713800442131800600,21.209800537109373,-1.0436632633209229,0.6204863786697388,2.1175644397735596
1713800442149521700,21.227521728515626,-1.2101240158081055,1.2472341060638428,1.9017761945724487
1713800442167243000,21.245242919921875,-1.1614075899124146,1.395827054977417,1.9769126176834106
1713800442184967400,21.262967529296876,-0.9124799370765686,1.5505287647247314,1.8322902917861938
1713800442202685200,21.280685302734376,-0.7040221691131592,1.8167132139205933,1.5540411472320557
1713800442220410600,21.29841064453125,-0.5396994352340698,1.8988746404647827,1.2415835857391357
1713800442238133000,21.316133056640624,-0.4121813178062439,2.0086777210235596,0.9007207751274109
1713800442255855600,21.333855712890625,-0.3959933817386627,2.1922426223754883,0.45692721009254456
1713800442273574000,21.351573974609376,-0.39064833521842957,2.2423336505889893,0.017867809161543846
1713800442291298800,21.369298828125,-0.29825496673583984,1.9285016059875488,-0.4761694669723511
1713800442309019100,21.38701904296875,-0.11850785464048386,1.461495041847229,-1.1238393783569336
1713800442326744600,21.40474462890625,-0.058948494493961334,1.151481032371521,-1.677894115447998
1713800442344466400,21.422466552734374,-0.24984388053417206,0.9865473508834839,-1.1933252811431885
1713800442362189300,21.440189208984375,-0.36392298340797424,1.1693488359451294,0.3006984293460846
1713800442379912400,21.457912353515624,0.14156801998615265,1.524566888809204,0.917672336101532
1713800442397634000,21.475634033203125,0.0354301854968071,1.296408772468567,1.739133358001709
1713800442415357000,21.49335693359375,-0.2269364446401596,1.1264355182647705,1.5771013498306274
1713800442433078300,21.511078369140623,-0.1918116807937622,0.8837692737579346,0.949895441532135
1713800442450800000,21.528800048828124,-0.04444044828414917,1.454470157623291,0.3179553747177124
1713800442468522800,21.546522705078125,0.032070424407720566,1.2707524299621582,-0.3254384696483612
1713800442486244600,21.56424462890625,0.20082195103168488,-1.0958921909332275,-1.4897476434707642
1713800442503968500,21.581968505859376,0.32299500703811646,-2.6755897998809814,-1.9254472255706787
1713800442521685200,21.599685302734375,0.617584764957428,-1.180649757385254,0.6656904220581055
1713800442539411700,21.61741162109375,1.3164145946502686,-1.4555391073226929,0.2565633952617645
1713800442557135000,21.635135009765627,1.2793045043945312,-3.0138564109802246,-1.6019941568374634
1713800442574851600,21.6528515625,0.2664899528026581,-3.6392297744750977,-2.4882068634033203
1713800442592578600,21.67057861328125,-0.4444044530391693,-3.6861135959625244,-3.1190779209136963
1713800442610301200,21.68830126953125,-0.8552113175392151,-1.6708691120147705,-2.0645718574523926
1713800442628024000,21.706024169921875,-0.8608618378639221,0.006719517521560192,-1.7553212642669678
1713800442645745400,21.723745361328124,-0.2765692472457886,-0.664315938949585,-2.2901337146759033
1713800442663466800,21.741466796875,0.25824329257011414,-1.2832751274108887,-2.3131940364837646
1713800442681191200,21.759191162109374,0.48166725039482117,-0.7870998978614807,-2.172084093093872
1713800442698905900,21.77690576171875,0.6024658679962158,-0.8185594081878662,-2.1536054611206055
1713800442716638500,21.794638427734377,0.5229006409645081,-1.1623238325119019,-2.221869707107544
1713800442734357000,21.81235693359375,0.4931209683418274,-1.4428637027740479,-2.197434902191162
1713800442752079400,21.830079345703126,0.49586987495422363,-1.3312281370162964,-2.1763601303100586
1713800442769802500,21.847802490234375,0.5900958180427551,-1.098793864250183,-2.052049160003662
1713800442787523800,21.86552392578125,0.7458664774894714,-0.7870998978614807,-1.8040378093719482
