time,seconds_elapsed,z,y,x
1713800421046693000,0.124693115234375,9.973882675170898,0.7962117195129395,-0.3888336718082428
1713800421064422400,0.14242236328125,9.611968994140625,0.776470959186554,-0.4097708761692047
1713800421082146300,0.160146240234375,9.463613510131836,0.8434699773788452,-0.3535395562648773
1713800421099868400,0.177868408203125,9.616754531860352,0.7334001660346985,-0.4815555512905121
1713800421117589500,0.195589599609375,9.731011390686035,0.8099704384803772,-0.4091726839542389
1713800421135301000,0.213301025390625,9.826126098632812,0.8201399445533752,-0.4133601188659668
1713800421153034500,0.231034423828125,9.945169448852539,0.8249256014823914,-0.3936193287372589
1713800421170757600,0.248757568359375,9.878767967224121,0.7914260625839233,-0.4701896607875824
1713800421188479200,0.266479248046875,9.80219841003418,0.877567708492279,-0.4325026869773865
1713800421206202400,0.284202392578125,9.602396965026855,0.7860422134399414,-0.47676992416381836
1713800421223924000,0.301924072265625,9.626325607299805,0.833898663520813,-0.41934216022491455
1713800421241647600,0.319647705078125,9.564111709594727,0.7956135272979736,-0.38644084334373474
1713800421259367000,0.337366943359375,9.678369522094727,0.8099704384803772,-0.4043870270252228
1713800421277091800,0.355091796875,9.683155059814453,0.8482556343078613,-0.4139583110809326
1713800421294813400,0.3728134765625,9.735796928405762,0.8201399445533752,-0.39481574296951294
1713800421312536600,0.39053662109375,9.863813400268555,0.7292127013206482,-0.3128615617752075
1713800421330257200,0.408257080078125,9.768698692321777,0.753140926361084,-0.33738797903060913
1713800421347981300,0.425981201171875,9.735796928405762,0.7962117195129395,-0.36610186100006104
1713800421365700000,0.4437001953125,9.740582466125488,0.8291130661964417,-0.4468596279621124
1713800421383426000,0.461426025390625,9.735796928405762,0.8530412912368774,-0.4660021960735321
1713800421401147400,0.4791474609375,9.692726135253906,0.8913264274597168,-0.4570291340351105
1713800421418866200,0.4968662109375,9.654440879821777,0.8919246196746826,-0.3810569941997528
1713800421436575500,0.514575439453125,9.664012908935547,0.8344969153404236,-0.357128769159317
1713800421454315800,0.532315673828125,9.830911636352539,0.7914260625839233,-0.42293140292167664
1713800421472032500,0.550032470703125,9.854840278625488,0.7914260625839233,-0.4085744619369507
1713800421489764000,0.56776416015625,9.854840278625488,0.7339983582496643,-0.39900317788124084
1713800421507481900,0.58548193359375,9.77826976776123,0.753140926361084,-0.380458801984787
1713800421525201200,0.603201171875,9.783055305480957,0.776470959186554,-0.4181457459926605
1713800421542923800,0.620923828125,9.683155059814453,0.8153542876243591,-0.36670008301734924
1713800421560655600,0.638655517578125,9.592227935791016,0.7908278703689575,-0.37148571014404297
1713800421578370800,0.656370849609375,9.683155059814453,0.7860422134399414,-0.36670008301734924
1713800421596094000,0.674093994140625,9.744770050048828,0.8057830333709717,-0.3613162338733673
1713800421613800000,0.691800048828125,9.601799011230469,0.8243274092674255,-0.3290131092071533
1713800421631539500,0.70953955078125,9.692726135253906,0.786640465259552,-0.357128769159317
1713800421649259500,0.727259521484375,9.730413436889648,0.7579265832901001,-0.3236292600631714
1713800421666985200,0.744985107421875,9.873982429504395,0.7818548083305359,-0.43190449476242065
1713800421684701200,0.762701171875,9.854840278625488,0.753140926361084,-0.3798605799674988
1713800421702425000,0.780425048828125,9.835697174072266,0.7148557901382446,-0.37507495284080505
1713800421720148700,0.798148681640625,9.754341125488281,0.7674978375434875,-0.3565305769443512
1713800421737874400,0.81587451171875,9.721440315246582,0.8057830333709717,-0.380458801984787
1713800421755594500,0.833594482421875,9.731011390686035,0.9014959335327148,-0.3517449200153351
1713800421773317600,0.851317626953125,9.797411918640137,0.8392825126647949,-0.39421752095222473
1713800421791039500,0.86903955078125,9.81655502319336,0.7579265832901001,-0.3517449200153351
1713800421808764000,0.886763916015625,9.625727653503418,0.747757077217102,-0.3242274820804596
1713800421826482700,0.904482666015625,9.553942680358887,0.7429714202880859,-0.3152543902397156
1713800421844207600,0.92220751953125,9.783055305480957,0.7962117195129395,-0.34217363595962524
1713800421861923800,0.939923828125,10.012167930603027,0.7292127013206482,-0.40737804770469666
1713800421879656000,0.957656005859375,9.983454704284668,0.7339983582496643,-0.3696911036968231
1713800421897373400,0.97537353515625,9.730413436889648,0.7483552694320679,-0.31405797600746155
1713800421915096600,0.9930966796875,9.659226417541504,0.7483552694320679,-0.2949153780937195
1713800421932813000,1.01081298828125,9.678369522094727,0.7722834944725037,-0.3188436031341553
1713800421950540300,1.028540283203125,9.678369522094727,0.8195417523384094,-0.3810569941997528
1713800421968263000,1.046262939453125,9.668798446655273,0.7962117195129395,-0.31405797600746155
1713800421985987300,1.0639873046875,9.601799011230469,0.8057830333709717,-0.28115665912628174
1713800422003703300,1.081703369140625,9.725627899169922,0.7627122402191162,-0.26620152592658997
1713800422021428000,1.099427978515625,9.911669731140137,0.666999340057373,-0.23629122972488403
1713800422039155000,1.117155029296875,10.006784439086914,0.6957131624221802,-0.3122633695602417
1713800422056875800,1.134875732421875,9.916455268859863,0.7818548083305359,-0.37926238775253296
1713800422074595800,1.152595947265625,9.58325481414795,0.8482556343078613,-0.36251261830329895
1713800422092313000,1.17031298828125,9.482755661010742,0.8817551732063293,-0.3487538993358612
1713800422110039800,1.188039794921875,9.70229721069336,0.7722834944725037,-0.357128769159317
1713800422127766800,1.205766845703125,9.868598937988281,0.7004988193511963,-0.3128615617752075
1713800422145486300,1.223486328125,9.830911636352539,0.7052844762802124,-0.39900317788124084
1713800422163209700,1.241209716796875,9.730413436889648,0.7579265832901001,-0.3284149169921875
1713800422180918500,1.25891845703125,9.56889820098877,0.7812566161155701,-0.3433700501918793
1713800422198651400,1.2766513671875,9.673583984375,0.8584251403808594,-0.3236292600631714
1713800422216360700,1.294360595703125,9.830911636352539,0.7722834944725037,-0.3655036687850952
1713800422234094000,1.312093994140625,9.840482711791992,0.8153542876243591,-0.34636107087135315
1713800422251820300,1.3298203125,9.588040351867676,0.833898663520813,-0.39062830805778503
1713800422269531600,1.34753173828125,9.644869804382324,0.7860422134399414,-0.3762713670730591
1713800422287264000,1.365263916015625,9.878767967224121,0.719641387462616,-0.4181457459926605
1713800422304984600,1.382984619140625,9.959526062011719,0.7914260625839233,-0.4504488706588745
1713800422322716000,1.4007158203125,9.77408218383789,0.8153542876243591,-0.4043870270252228
1713800422340434200,1.41843408203125,9.711869239807129,0.8243274092674255,-0.3900300860404968
1713800422358153700,1.43615380859375,9.53061294555664,0.8679963946342468,-0.28654050827026367
1713800422375877600,1.453877685546875,9.707083702087402,0.8769695162773132,-0.4091726839542389
1713800422393584400,1.47158447265625,9.968499183654785,0.753140926361084,-0.26919254660606384
1713800422411325000,1.489324951171875,10.045069694519043,0.7292127013206482,-0.37866419553756714
1713800422429039400,1.507039306640625,9.749555587768555,0.7962117195129395,-0.26620152592658997
1713800422446767400,1.524767333984375,9.492327690124512,0.7286145091056824,-0.31046873331069946
1713800422464487200,1.542487060546875,9.506684303283691,0.8195417523384094,-0.28175488114356995
1713800422482213000,1.560213134765625,9.601799011230469,0.8153542876243591,-0.3002992272377014
1713800422499932700,1.5779326171875,9.835697174072266,0.7483552694320679,-0.31764721870422363
1713800422517653500,1.595653564453125,9.892526626586914,0.7004988193511963,-0.29371899366378784
1713800422535377400,1.61337744140625,9.80219841003418,0.7292127013206482,-0.39421752095222473
1713800422553100800,1.631100830078125,9.744770050048828,0.8488538265228271,-0.31824541091918945
1713800422570810600,1.648810546875,9.606584548950195,0.8823533654212952,-0.2955136001110077
1713800422588544800,1.666544677734375,9.672985076904297,0.8871390223503113,-0.2470589429140091
1713800422606266600,1.6842666015625,9.735198974609375,0.7435696125030518,-0.22791635990142822
1713800422623991600,1.701991455078125,9.787840843200684,0.7148557901382446,-0.2470589429140091
1713800422641717200,1.71971728515625,9.787840843200684,0.7148557901382446,-0.2757728099822998
1713800422659439000,1.737439208984375,9.826126098632812,0.7100701332092285,-0.3086741268634796
1713800422677151700,1.75515185546875,9.835697174072266,0.7244270443916321,-0.3846462368965149
1713800422694883600,1.772883544921875,9.773484230041504,0.7722834944725037,-0.37088751792907715
1713800422712600800,1.790600830078125,9.68794059753418,0.7573283910751343,-0.3523431420326233
1713800422730324500,1.808324462890625,9.720842361450195,0.7914260625839233,-0.23270200192928314
1713800422748038100,1.8260380859375,9.768698692321777,0.7627122402191162,-0.275174617767334
1713800422765769000,1.84376904296875,9.859625816345215,0.786640465259552,-0.3367897868156433
1713800422783490000,1.861489990234375,9.787840843200684,0.7818548083305359,-0.380458801984787
1713800422801213700,1.879213623046875,9.750154495239258,0.8392825126647949,-0.3756731450557709
1713800422818930000,1.896929931640625,9.711270332336426,0.8057830333709717,-0.3236292600631714
1713800422836653800,1.91465380859375,9.749555587768555,0.7674978375434875,-0.2231307178735733
1713800422854379300,1.932379150390625,9.92124080657959,0.719641387462616,-0.24107688665390015
1713800422872100900,1.950100830078125,9.825528144836426,0.7244270443916321,-0.18005990982055664
1713800422889825800,1.96782568359375,9.701699256896973,0.7244270443916321,-0.31405797600746155
1713800422907542800,1.985542724609375,9.611370086669922,0.833898663520813,-0.3433700501918793
1713800422925273000,2.003273193359375,9.497113227844238,0.8243274092674255,-0.3439682424068451
1713800422942993200,2.0209931640625,9.640084266662598,0.8249256014823914,-0.3002992272377014
1713800422960716800,2.038716796875,9.77826976776123,0.7674978375434875,-0.2470589429140091
1713800422978436900,2.056436767578125,9.982855796813965,0.6771687865257263,-0.19800607860088348
1713800422996157000,2.074156982421875,10.083354949951172,0.6867401003837585,-0.24047867953777313
1713800423013882400,2.09188232421875,9.835697174072266,0.7435696125030518,-0.31345975399017334
1713800423031603000,2.10960302734375,9.606584548950195,0.8584251403808594,-0.30987054109573364
1713800423049326300,2.127326416015625,9.477970123291016,0.9056833982467651,-0.3152543902397156
1713800423067047400,2.14504736328125,9.635298728942871,0.844068169593811,-0.30508488416671753
1713800423084770600,2.1627705078125,9.825528144836426,0.7674978375434875,-0.21774685382843018
1713800423102492200,2.1804921875,9.902098655700684,0.7244270443916321,-0.25064817070961
1713800423120216300,2.19821630859375,9.768698692321777,0.7387840151786804,-0.2805584669113159
1713800423137940700,2.215940673828125,9.68794059753418,0.7770691514015198,-0.29012975096702576
1713800423155652900,2.23365283203125,9.659226417541504,0.7627122402191162,-0.28115665912628174
1713800423173384000,2.251384033203125,9.773484230041504,0.8249256014823914,-0.275174617767334
1713800423191104800,2.269104736328125,9.811769485473633,0.786640465259552,-0.32303106784820557
1713800423208821500,2.286821533203125,9.811769485473633,0.8153542876243591,-0.27038896083831787
1713800423226541000,2.304541015625,9.64965534210205,0.8009973764419556,-0.26201409101486206
1713800423244269000,2.32226904296875,9.558728218078613,0.8201399445533752,-0.28654050827026367
1713800423261995800,2.339995849609375,9.696913719177246,0.786640465259552,-0.29012975096702576
1713800423279710500,2.35771044921875,9.845269203186035,0.753140926361084,-0.3278166949748993
1713800423297437400,2.3754375,9.911669731140137,0.8009973764419556,-0.2841476798057556
1713800423315160600,2.39316064453125,9.826126098632812,0.6909275650978088,-0.2991028428077698
1713800423332882000,2.4108818359375,9.749555587768555,0.7292127013206482,-0.2566302418708801
1713800423350605600,2.42860546875,9.640084266662598,0.7668996453285217,-0.3475574851036072
1713800423368326700,2.44632666015625,9.678369522094727,0.8584251403808594,-0.3236292600631714
1713800423386050000,2.464050048828125,9.673583984375,0.877567708492279,-0.2805584669113159
1713800423403772200,2.481772216796875,9.80219841003418,0.8392825126647949,-0.2560320198535919
1713800423421490700,2.49949072265625,9.787242889404297,0.7818548083305359,-0.17527425289154053
1713800423439220700,2.517220703125,9.79681396484375,0.7292127013206482,-0.20877377688884735
1713800423456934700,2.5349345703125,9.744770050048828,0.7674978375434875,-0.26141586899757385
1713800423474660400,2.552660400390625,9.768698692321777,0.7483552694320679,-0.3278166949748993
1713800423492383200,2.57038330078125,9.821340560913086,0.7579265832901001,-0.34695929288864136
1713800423510108000,2.58810791015625,9.77826976776123,0.7483552694320679,-0.3326023519039154
1713800423527826400,2.605826416015625,9.678369522094727,0.786640465259552,-0.3188436031341553
1713800423545550800,2.62355078125,9.787840843200684,0.7818548083305359,-0.2991028428077698
1713800423563271200,2.641271240234375,9.81655502319336,0.7914260625839233,-0.32303106784820557
1713800423580992000,2.658991943359375,9.77408218383789,0.7956135272979736,-0.4139583110809326
1713800423598712600,2.676712646484375,9.787840843200684,0.8201399445533752,-0.3756731450557709
1713800423616429600,2.6944296875,9.754341125488281,0.8153542876243591,-0.3565305769443512
1713800423634158800,2.712158935546875,9.806983947753906,0.8249256014823914,-0.2991028428077698
1713800423651887600,2.7298876953125,9.863813400268555,0.7962117195129395,-0.23210379481315613
1713800423669604900,2.74760498046875,9.859027862548828,0.753140926361084,-0.2273181527853012
1713800423687330600,2.76533056640625,9.635298728942871,0.8057830333709717,-0.24287149310112
1713800423705050600,2.783050537109375,9.44447135925293,0.8291130661964417,-0.24406790733337402
1713800423722771200,2.800771240234375,9.573084831237793,0.8003991842269897,-0.30987054109573364
1713800423740498200,2.818498291015625,9.821340560913086,0.7292127013206482,-0.3086741268634796
1713800423758219300,2.83621923828125,9.90688419342041,0.7339983582496643,-0.2602194547653198
1713800423775938800,2.853938720703125,9.783055305480957,0.7627122402191162,-0.28953152894973755
1713800423793651700,2.871651611328125,9.7064847946167,0.7818548083305359,-0.251844584941864
1713800423811381500,2.889381591796875,9.606584548950195,0.8392825126647949,-0.2476571500301361
1713800423829111000,2.907111083984375,9.76391315460205,0.877567708492279,-0.2847459018230438
1713800423846829600,2.92482958984375,9.806983947753906,0.8632107973098755,-0.3038884699344635
1713800423864551400,2.942551513671875,9.811769485473633,0.8632107973098755,-0.24167509377002716
1713800423882274600,2.960274658203125,9.730413436889648,0.8297112584114075,-0.2231307178735733
1713800423899997200,2.9779970703125,9.744770050048828,0.8536394834518433,-0.23270200192928314
1713800423917719300,2.99571923828125,9.77826976776123,0.8488538265228271,-0.2512463629245758
1713800423935441400,3.01344140625,9.77826976776123,0.8392825126647949,-0.32303106784820557
1713800423953158100,3.031158203125,9.701699256896973,0.8679963946342468,-0.2470589429140091
1713800423970884900,3.048884765625,9.644869804382324,0.8099704384803772,-0.33798620104789734
1713800423988609000,3.066609130859375,9.682557106018066,0.8536394834518433,-0.20458634197711945
1713800424006331000,3.084330810546875,9.787242889404297,0.7770691514015198,-0.1657029688358307
1713800424024052200,3.10205224609375,9.797411918640137,0.7627122402191162,-0.2512463629245758
1713800424041775600,3.119775634765625,9.80219841003418,0.8249256014823914,-0.2560320198535919
1713800424059484200,3.137484130859375,9.749555587768555,0.8297112584114075,-0.251844584941864
1713800424077220900,3.155220947265625,9.701699256896973,0.8871390223503113,-0.2566302418708801
1713800424094940700,3.172940673828125,9.625727653503418,0.9014959335327148,-0.23808585107326508
1713800424112660500,3.190660400390625,9.725627899169922,0.877567708492279,-0.2470589429140091
1713800424130386000,3.208385986328125,9.845269203186035,0.7435696125030518,-0.3086741268634796
1713800424148109600,3.226109619140625,9.759127616882324,0.8105686902999878,-0.18963119387626648
1713800424165830700,3.24383056640625,9.768698692321777,0.8057830333709717,-0.26620152592658997
1713800424183554000,3.261553955078125,9.79262638092041,0.9349954724311829,-0.2560320198535919
1713800424201274600,3.279274658203125,9.783055305480957,0.9302098155021667,-0.26081767678260803
1713800424218995200,3.2969951171875,9.76391315460205,0.8727820515632629,-0.20398813486099243
1713800424236705500,3.31470556640625,9.616155624389648,0.8201399445533752,-0.20039889216423035
1713800424254440400,3.3324404296875,9.573084831237793,0.8249256014823914,-0.1621137410402298
1713800424272151300,3.3501513671875,9.644271850585938,0.8105686902999878,-0.1902294009923935
1713800424289888800,3.367888671875,9.959526062011719,0.7722834944725037,-0.26979073882102966
1713800424307611100,3.385611083984375,9.997213363647461,0.7722834944725037,-0.27397820353507996
1713800424325332500,3.40333251953125,9.902098655700684,0.8009973764419556,-0.26979073882102966
1713800424343052800,3.421052734375,9.65384292602539,0.8679963946342468,-0.20458634197711945
1713800424360763100,3.43876318359375,9.56351375579834,0.8536394834518433,-0.20039889216423035
1713800424378498000,3.456498046875,9.672985076904297,0.8488538265228271,-0.24287149310112
1713800424396223000,3.474222900390625,9.744770050048828,0.8727820515632629,-0.22791635990142822
1713800424413941800,3.491941650390625,9.830911636352539,0.7818548083305359,-0.2799602448940277
1713800424431661800,3.509661865234375,9.787242889404297,0.8297112584114075,-0.19920247793197632
1713800424449375700,3.527375732421875,9.801599502563477,0.8344969153404236,-0.20817556977272034
1713800424467110400,3.5451103515625,9.80219841003418,0.8632107973098755,-0.24646073579788208
1713800424484833000,3.5628330078125,9.711270332336426,0.8488538265228271,-0.20877377688884735
1713800424502555600,3.5805556640625,9.601201057434082,0.8344969153404236,-0.1621137410402298
1713800424520275700,3.598275634765625,9.553942680358887,0.8201399445533752,-0.15732808411121368
1713800424537990700,3.61599072265625,9.658628463745117,0.8249256014823914,-0.17587246000766754
1713800424555716900,3.633716796875,9.844670295715332,0.7722834944725037,-0.2273181527853012
1713800424573444900,3.65144482421875,9.926026344299316,0.7674978375434875,-0.24107688665390015
1713800424591166200,3.669166259765625,9.735198974609375,0.7962117195129395,-0.23748764395713806
1713800424608884500,3.686884521484375,9.625727653503418,0.8297112584114075,-0.22851456701755524
1713800424626611000,3.70461083984375,9.635298728942871,0.8057830333709717,-0.23808585107326508
1713800424644332800,3.722332763671875,9.711270332336426,0.6813562512397766,-0.19980068504810333
1713800424662056200,3.74005615234375,9.720842361450195,0.6478567123413086,-0.21415762603282928
1713800424679778300,3.7577783203125,10.021141052246094,0.7058826684951782,-0.2309073805809021
1713800424697500000,3.7755,9.959526062011719,0.8679963946342468,-0.32183465361595154
1713800424715222000,3.793221923828125,9.616155624389648,1.0163514614105225,-0.34277185797691345
1713800424732945400,3.8109453125,9.463613510131836,1.0450652837753296,-0.2721835672855377
1713800424750663200,3.8286630859375,9.635298728942871,0.8584251403808594,-0.25722843408584595
1713800424768389000,3.84638916015625,9.840482711791992,0.8009973764419556,-0.29431718587875366
1713800424786112300,3.8641123046875,9.945169448852539,0.7052844762802124,-0.35533416271209717
1713800424803833600,3.88183349609375,9.897313117980957,0.6813562512397766,-0.29371899366378784
1713800424821557000,3.899556884765625,9.835697174072266,0.7244270443916321,-0.3326023519039154
1713800424839268000,3.91726806640625,9.840482711791992,0.8201399445533752,-0.355932354927063
1713800424856999700,3.934999755859375,9.673583984375,0.8051848411560059,-0.36670008301734924
1713800424874722800,3.952722900390625,9.582656860351562,0.8632107973098755,-0.2907279431819916
1713800424892434400,3.970434326171875,9.501898765563965,0.8434699773788452,-0.2626122832298279
1713800424910167600,3.98816748046875,9.539586067199707,0.877567708492279,-0.17647066712379456
1713800424927871500,4.00587158203125,9.592227935791016,0.8679963946342468,-0.19561325013637543
1713800424945613300,4.02361328125,9.664012908935547,0.7914260625839233,-0.3284149169921875
1713800424963337200,4.041337158203125,9.907482147216797,0.8249256014823914,-0.3888336718082428
1713800424981056500,4.059056396484375,9.90688419342041,0.9684949517250061,-0.34576287865638733
1713800424998780000,4.07677978515625,9.80219841003418,0.8871390223503113,-0.3565305769443512
1713800425016488200,4.09448828125,9.815957069396973,0.8679963946342468,-0.21296121180057526
1713800425034226000,4.112225830078125,9.749555587768555,0.7579265832901001,-0.26620152592658997
1713800425051945700,4.12994580078125,9.620942115783691,0.786640465259552,-0.19561325013637543
1713800425069664500,4.14766455078125,9.224929809570312,0.7573283910751343,-0.2602194547653198
1713800425087390700,4.165390625,9.206384658813477,0.7238288521766663,-0.2554338276386261
1713800425105113600,4.183113525390625,9.611370086669922,0.6137589812278748,-0.381655216217041
1713800425122835200,4.200835205078125,10.01156997680664,0.6717849373817444,-0.27397820353507996
1713800425140558000,4.21855810546875,10.29332447052002,0.39900317788124084,-0.3684946894645691
1713800425158281200,4.23628125,10.235299110412598,0.39960137009620667,-0.129810631275177
1713800425176001300,4.254001220703125,9.968499183654785,0.39421752095222473,-0.26560330390930176
1713800425193724400,4.271724365234375,9.844670295715332,0.42293140292167664,-0.20398813486099243
1713800425211447800,4.28944775390625,9.896714210510254,0.39900317788124084,-0.1704886108636856
1713800425229164300,4.307164306640625,9.65803050994873,0.4372883439064026,-0.07178468257188797
1713800425246892300,4.324892333984375,9.629914283752441,0.4366901218891144,-0.21954147517681122
1713800425264612400,4.3426123046875,9.839884757995605,0.4181457459926605,-0.2231307178735733
1713800425282338000,4.360338134765625,10.059426307678223,0.3032902777194977,-0.2602194547653198
1713800425300053500,4.378053466796875,9.997213363647461,0.3655036687850952,-0.1986042857170105
1713800425317768400,4.3957685546875,9.749555587768555,0.4462614357471466,-0.25244277715682983
1713800425335503600,4.413503662109375,9.629914283752441,0.5324030518531799,-0.2386840581893921
1713800425353225000,4.431224853515625,9.625727653503418,0.5276173949241638,-0.267397940158844
1713800425370948000,4.448947998046875,9.739984512329102,0.46061834692955017,-0.2715853750705719
1713800425388666000,4.466666015625,9.897313117980957,0.3798605799674988,-0.2225325107574463
1713800425406389800,4.4843896484375,9.987641334533691,0.3367897868156433,-0.19381862878799438
1713800425424112600,4.502112548828125,9.91107177734375,0.40378883481025696,-0.14656038582324982
1713800425441839400,4.51983935546875,9.773484230041504,0.45583271980285645,-0.26141586899757385
1713800425459560000,4.537559814453125,9.696913719177246,0.50907301902771,-0.17647066712379456
1713800425477282000,4.555281982421875,9.792028427124023,0.48035913705825806,-0.18065811693668365
1713800425495006500,4.57300634765625,9.954142570495605,0.50907301902771,-0.14117653667926788
1713800425512725800,4.590725830078125,9.891928672790527,0.50907301902771,-0.12263216078281403
1713800425530449200,4.60844921875,9.8207426071167,0.5377869009971619,-0.1136590763926506
1713800425548170200,4.626170166015625,9.839884757995605,0.5521438121795654,-0.22791635990142822
1713800425565893600,4.6438935546875,9.835099220275879,0.6095715761184692,-0.21355941891670227
1713800425583614500,4.661614501953125,9.710672378540039,0.633499801158905,-0.10887342691421509
1713800425601332200,4.679332275390625,9.582656860351562,0.6765705943107605,-0.1621137410402298
1713800425619060700,4.697060791015625,9.54915714263916,0.666999340057373,-0.14835500717163086
1713800425636782600,4.714782470703125,9.587442398071289,0.6765705943107605,-0.17228323221206665
1713800425654502700,4.732502685546875,9.77826976776123,0.6622136831283569,-0.23748764395713806
1713800425672226000,4.75022607421875,9.79262638092041,0.633499801158905,-0.31405797600746155
1713800425689948400,4.767948486328125,9.67777156829834,0.7339983582496643,-0.1902294009923935
1713800425707668500,4.78566845703125,9.568299293518066,0.7716853022575378,-0.2721835672855377
1713800425725393200,4.80339306640625,9.658628463745117,0.6717849373817444,-0.20937198400497437
1713800425743116800,4.82111669921875,9.749555587768555,0.6472585201263428,-0.37148571014404297
1713800425760838100,4.838838134765625,9.811769485473633,0.6622136831283569,-0.3517449200153351
1713800425778561000,4.85656103515625,9.534799575805664,0.6813562512397766,-0.20099709928035736
1713800425796283000,4.874282958984375,9.177671432495117,0.646660327911377,-0.3080759048461914
1713800425814005000,4.8920048828125,8.952746391296387,0.747757077217102,-0.0568295381963253
1713800425831726800,4.909726806640625,9.424132347106934,0.8063812255859375,0.0849452018737793
1713800425849450500,4.927450439453125,9.826126098632812,0.6717849373817444,-0.31345975399017334
1713800425867171600,4.945171630859375,9.781859397888184,0.6771687865257263,0.16331014037132263
1713800425884895200,4.962895263671875,10.37767219543457,0.24227328598499298,0.052043892443180084
1713800425902616000,4.980615966796875,10.579267501831055,0.18843477964401245,-0.4666004180908203
1713800425920339500,4.99833935546875,9.949954986572266,0.40319061279296875,-0.4660021960735321
1713800425938060800,5.016060791015625,9.487542152404785,0.43609192967414856,-0.4540380835533142
1713800425955784000,5.033783935546875,9.32602596282959,0.6370890140533447,-0.5264210104942322
1713800425973502500,5.05150244140625,9.549755096435547,0.6753742098808289,-0.5108676552772522
1713800425991228000,5.069227783203125,9.964311599731445,0.4893322288990021,-0.4175475537776947
1713800426008947000,5.086947021484375,10.216754913330078,0.3655036687850952,-0.3068794906139374
1713800426026668500,5.10466845703125,10.016355514526367,0.3607180118560791,-0.28893333673477173
1713800426044394500,5.12239453125,9.77826976776123,0.4175475537776947,-0.39541393518447876
1713800426062114300,5.1401142578125,9.864411354064941,0.503689169883728,-0.45643091201782227
1713800426079834600,5.157834716796875,9.778867721557617,0.4989035129547119,-0.4953143000602722
1713800426097566700,5.175566650390625,9.711869239807129,0.5515456199645996,-0.4815555512905121
1713800426115285000,5.193284912109375,9.826126098632812,0.45104706287384033,-0.4139583110809326
1713800426133005800,5.211005859375,9.854840278625488,0.42711883783340454,-0.47557350993156433
1713800426150728200,5.228728271484375,9.878170013427734,0.4462614357471466,-0.32303106784820557
1713800426168450600,5.246450439453125,9.815957069396973,0.364905446767807,-0.30927231907844543
1713800426186174000,5.264174072265625,9.830313682556152,0.4223332107067108,-0.2805584669113159
1713800426203896300,5.281896240234375,9.81655502319336,0.45104706287384033,-0.37088751792907715
1713800426221617400,5.299617431640625,9.949954986572266,0.4366901218891144,-0.42771705985069275
1713800426239331000,5.3173310546875,9.92124080657959,0.47976094484329224,-0.4325026869773865
1713800426257062100,5.335062255859375,9.783055305480957,0.45583271980285645,-0.3284149169921875
1713800426274780700,5.35278076171875,9.730413436889648,0.4414757788181305,-0.2763710021972656
1713800426292505300,5.37050537109375,9.79681396484375,0.4468596279621124,-0.2566302418708801
1713800426310230000,5.38822998046875,9.768698692321777,0.4175475537776947,-0.3044866919517517
1713800426327952100,5.4059521484375,9.730413436889648,0.4749752879142761,-0.3523431420326233
1713800426345670000,5.423669921875,9.611370086669922,0.4701896607875824,-0.28654050827026367
1713800426363394300,5.441394287109375,9.582656860351562,0.45104706287384033,-0.20578274130821228
1713800426381120800,5.459120849609375,9.65384292602539,0.4085744619369507,-0.15732808411121368
1713800426398842400,5.47684228515625,9.839884757995605,0.389431893825531,-0.17527425289154053
1713800426416552200,5.49455224609375,10.021141052246094,0.3846462368965149,-0.24586252868175507
1713800426434284000,5.512283935546875,9.759127616882324,0.3888336718082428,-0.29012975096702576
1713800426452009500,5.530009521484375,9.606584548950195,0.503689169883728,-0.2913261651992798
1713800426469729800,5.547729736328125,9.463613510131836,0.5706881880760193,-0.2632105052471161
1713800426487453000,5.565452880859375,9.620942115783691,0.5563312768936157,-0.33379876613616943
1713800426505174000,5.583174072265625,9.806983947753906,0.45104706287384033,-0.3188436031341553
1713800426522898000,5.60089794921875,9.859027862548828,0.39900317788124084,-0.275174617767334
1713800426540613000,5.618613037109375,9.8207426071167,0.4133601188659668,-0.1944168359041214
1713800426558340900,5.6363408203125,9.725627899169922,0.503689169883728,-0.29012975096702576
1713800426576059600,5.6540595703125,9.54915714263916,0.5324030518531799,-0.30568310618400574
1713800426593786600,5.67178662109375,9.620942115783691,0.5994020700454712,-0.28594231605529785
1713800426611508000,5.689508056640625,9.763314247131348,0.5282155871391296,-0.20458634197711945
1713800426629218600,5.707218505859375,9.734601020812988,0.4660021960735321,-0.137587308883667
1713800426646946600,5.724946533203125,9.8871431350708,0.4899304509162903,-0.12741780281066895
1713800426664672300,5.74267236328125,9.772886276245117,0.50907301902771,-0.0849452018737793
1713800426682398500,5.7603984375,9.577272415161133,0.45643091201782227,-0.11485548317432404
1713800426700120600,5.77812060546875,9.69631576538086,0.4612165689468384,-0.0568295381963253
1713800426717841400,5.79584130859375,9.715457916259766,0.5473581552505493,-0.137587308883667
1713800426735562000,5.81356201171875,9.915857315063477,0.600000262260437,-0.15553347766399384
1713800426753289000,5.8312890625,10.039685249328613,0.5240281820297241,-0.11186445504426956
1713800426771010000,5.849010009765625,9.881759643554688,0.5676971673965454,0.17347964644432068
1713800426788734200,5.866734130859375,9.947562217712402,0.4384847581386566,0.373878538608551
1713800426806442200,5.884442138671875,10.185647964477539,0.31465616822242737,0.4420739710330963
1713800426824175600,5.902175537109375,10.090533256530762,0.3242274820804596,0.45583271980285645
1713800426841898800,5.919898681640625,9.771689414978027,0.2991028428077698,0.2961117923259735
1713800426859620000,5.9376201171875,9.528220176696777,0.3613162338733673,0.2757728099822998
1713800426877340400,5.95534033203125,9.452247619628906,0.3900300860404968,0.24646073579788208
1713800426895067400,5.9730673828125,9.409774780273438,0.2267199456691742,0.21296121180057526
1713800426912788200,5.990788330078125,9.871589660644531,-0.031106693670153618,0.27756741642951965
1713800426930509000,6.008509033203125,10.587641716003418,0.07417750358581543,-0.10468599200248718
1713800426948226800,6.026226806640625,10.554142951965332,0.251844584941864,-0.052043892443180084
1713800426965954800,6.043954833984375,10.028918266296387,0.47198426723480225,0.3032902777194977
1713800426983672300,6.06167236328125,9.209376335144043,0.6484549641609192,0.3170489966869354
1713800427001398500,6.0793984375,9.256634712219238,0.5862415432929993,0.3080759048461914
1713800427019122200,6.0971220703125,9.594620704650879,0.768694281578064,0.4630111753940582
1713800427036843000,6.114843017578125,9.68494987487793,0.6975077986717224,0.5970092415809631
1713800427054565400,6.1325654296875,9.565906524658203,0.6687939167022705,0.638883650302887
1713800427072289000,6.1502890625,9.561120986938477,0.6831508874893188,0.5724828243255615
1713800427090011400,6.168011474609375,9.832706451416016,0.5300102233886719,0.5024927258491516
1713800427107717000,6.185717041015625,10.100104331970215,0.4247260093688965,0.45104706287384033
1713800427125454000,6.2034541015625,10.03848934173584,0.4534398913383484,0.37447673082351685
1713800427143178800,6.2211787109375,9.923633575439453,0.5060819983482361,0.4456632137298584
1713800427160900900,6.23890087890625,9.7998046875,0.5246263742446899,0.3158525824546814
1713800427178622200,6.256622314453125,9.675976753234863,0.6251249313354492,0.4253242313861847
1713800427196335000,6.274335205078125,9.761520385742188,0.5198407173156738,0.43489551544189453
1713800427214066200,6.292066162109375,9.909276962280273,0.4534398913383484,0.49292147159576416
1713800427231789800,6.309789794921875,10.066604614257812,0.44386860728263855,0.4893322288990021
1713800427249506000,6.327506103515625,9.761520385742188,0.5156532526016235,0.5353940725326538
1713800427267233300,6.3452333984375,9.641879081726074,0.534795880317688,0.6394818425178528
1713800427284956400,6.362956298828125,9.923035621643066,0.5443671345710754,0.5647061467170715
1713800427302670800,6.3806708984375,10.099506378173828,0.486939400434494,0.5276173949241638
1713800427320404000,6.398404052734375,9.851848602294922,0.4247260093688965,0.5545366406440735
1713800427338122500,6.41612255859375,9.651450157165527,0.4863412082195282,0.5341976284980774
1713800427355846100,6.43384619140625,9.565906524658203,0.5204389095306396,0.6101697683334351
1713800427373556500,6.451556396484375,9.675378799438477,0.486939400434494,0.5868397355079651
1713800427391289600,6.46928955078125,10.028319358825684,0.43908295035362244,0.4749752879142761
1713800427409000400,6.48700048828125,10.371689796447754,0.4773681163787842,0.381655216217041
1713800427426735900,6.50473583984375,10.119247436523438,0.5491527915000916,0.31824541091918945
1713800427444456700,6.522456787109375,9.762118339538574,0.735194742679596,0.33499518036842346
1713800427462180400,6.540180419921875,9.556933403015137,0.9074779748916626,0.36251261830329895
1713800427479902500,6.55790234375,9.852447509765625,0.898504912853241,0.4743770956993103
1713800427497623600,6.57562353515625,9.851848602294922,0.8512466549873352,0.5886343717575073
1713800427515347000,6.593346923828125,9.579665184020996,0.9182456731796265,0.7920243144035339
1713800427533068000,6.611068115234375,9.275178909301758,0.8458628058433533,0.6472585201263428
1713800427550787000,6.628787109375,9.322437286376953,0.836291491985321,0.7238288521766663
1713800427568513000,6.646512939453125,9.436694145202637,0.7692924737930298,0.7812566161155701
1713800427586235400,6.6642353515625,9.45583724975586,0.6448656916618347,0.7716853022575378
1713800427603958800,6.681958740234375,9.541379928588867,0.7357929348945618,0.6819544434547424
1713800427621676300,6.69967626953125,9.847063064575195,0.7698906660079956,0.6125625967979431
1713800427639401200,6.717401123046875,9.847063064575195,0.7310073375701904,0.5264210104942322
1713800427657127400,6.73512744140625,9.856635093688965,0.908674418926239,0.5509474277496338
1713800427674835200,6.752835205078125,9.309276580810547,0.8309076428413391,0.389431893825531
1713800427692568600,6.770568603515625,9.385847091674805,1.3525429964065552,0.23808585107326508
1713800427710292200,6.788292236328125,9.78126049041748,1.0133603811264038,0.30209386348724365
1713800427728013600,6.806013671875,10.086943626403809,1.4584254026412964,0.07118647545576096
1713800427745739300,6.8237392578125,10.119845390319824,1.4063814878463745,0.33858439326286316
1713800427763450000,6.8414501953125,10.472786903381348,1.6366907358169556,0.3170489966869354
1713800427781178400,6.859178466796875,10.472187995910645,1.5361921787261963,0.40737804770469666
1713800427798902800,6.87690283203125,9.503693580627441,1.8233308792114258,0.7836494445800781
1713800427816626000,6.8946259765625,9.956535339355469,1.551147222518921,0.7812566161155701
1713800427834349300,6.912349365234375,9.945169448852539,1.317248821258545,1.3435698747634888
1713800427852064000,6.93006396484375,10.2747802734375,1.1736794710159302,1.0929217338562012
1713800427869794300,6.947794189453125,10.04566764831543,1.211964726448059,1.0863415002822876
1713800427887515400,6.965515380859375,9.000602722167969,1.566102385520935,1.576271891593933
1713800427905237500,6.983237548828125,8.266005516052246,1.555932879447937,1.7437695264816284
1713800427922956500,7.00095654296875,8.948558807373047,1.8867406845092773,1.5385849475860596
1713800427940678400,7.018678466796875,9.535996437072754,1.618146300315857,1.0600204467773438
1713800427958403600,7.036403564453125,9.435498237609863,1.9968105554580688,1.1982059478759766
1713800427976129800,7.0541298828125,8.925228118896484,2.08713960647583,1.3142578601837158
1713800427993844700,7.0718447265625,8.74756145477295,2.365903377532959,1.7718851566314697
1713800428011571700,7.08957177734375,9.005986213684082,2.26959228515625,1.5014961957931519
1713800428029295600,7.107295654296875,9.031110763549805,2.235494613647461,1.124626636505127
1713800428047018000,7.12501806640625,9.449256896972656,2.2851455211639404,1.566102385520935
1713800428064738800,7.14273876953125,9.57787036895752,1.8681962490081787,1.5332010984420776
1713800428082462500,7.16046240234375,10.626524925231934,1.831107497215271,1.534995675086975
1713800428100183600,7.17818359375,9.739984512329102,2.0027925968170166,1.5672988891601562
1713800428117907200,7.1959072265625,8.678169250488281,2.2157537937164307,1.1413763761520386
1713800428135628800,7.21362890625,8.563912391662598,2.6422743797302246,1.1694921255111694
1713800428153352000,7.23135205078125,8.982656478881836,2.441875457763672,1.272383451461792
1713800428171073300,7.2490732421875,8.986844062805176,2.830709218978882,1.6163517236709595
1713800428188797000,7.266796875,9.000602722167969,2.4526431560516357,1.7114664316177368
1713800428206518300,7.284518310546875,9.606584548950195,2.255833625793457,1.404586911201477
1713800428224240400,7.302240478515625,10.74855899810791,1.8293129205703735,0.4336991012096405
1713800428241952300,7.3199521484375,8.638090133666992,2.4388844966888428,0.13040883839130402
1713800428259680800,7.3376806640625,7.424928665161133,1.2843475341796875,0.865005373954773
1713800428277405700,7.35540576171875,8.266005516052246,2.801995277404785,2.0410776138305664
1713800428295150800,7.37315087890625,11.401800155639648,1.5792629718780518,1.973480463027954
1713800428312855000,7.39085498046875,12.204591751098633,1.6701902151107788,1.415354609489441
1713800428330569000,7.40856884765625,9.998409271240234,2.155334949493408,1.0923235416412354
1713800428348296200,7.426296142578125,8.12123966217041,2.885744094848633,0.9906286001205444
1713800428366022000,7.44402197265625,6.693323135375977,3.3708889484405518,0.38644084334373474
1713800428383741700,7.46174169921875,7.130611419677734,2.9455647468566895,0.6747759580612183
1713800428401465900,7.4794658203125,8.691927909851074,2.4508485794067383,1.2945170402526855
1713800428419175000,7.4971748046875,9.844670295715332,2.0991036891937256,1.6396816968917847
1713800428436899300,7.5148994140625,10.027721405029297,2.4939193725585938,2.4526431560516357
1713800428454631200,7.532631103515625,9.189635276794434,2.703291416168213,2.376072883605957
1713800428472352300,7.550352294921875,9.748359680175781,2.885145902633667,1.954936146736145
1713800428490079200,7.568079345703125,10.99143123626709,2.710469961166382,2.325225353240967
1713800428507799300,7.58579931640625,6.616752624511719,2.558525562286377,3.456432342529297
1713800428525519000,7.60351904296875,8.074580192565918,1.714457392692566,2.043470621109009
1713800428543245000,7.6212451171875,9.90688419342041,2.4472594261169434,3.1435706615448
1713800428560967000,7.638966796875,9.617352485656738,2.162513494491577,4.333401679992676
1713800428578685200,7.656685302734375,7.159325122833252,1.4997016191482544,5.166104316711426
1713800428596394500,7.67439453125,4.412963390350342,2.231307029724121,4.057629108428955
1713800428614133800,7.6921337890625,4.3758745193481445,1.197009563446045,1.9812572002410889
1713800428631853300,7.709853271484375,3.909274101257324,-0.3930211067199707,-1.6109678745269775
1713800428649581000,7.7275810546875,9.253045082092285,-1.5966109037399292,-5.242674350738525
1713800428667300000,7.745300048828125,19.864614486694336,-2.292922258377075,-12.07896900177002
1713800428685022500,7.7630224609375,8.58784008026123,4.645665168762207,-6.698108673095703
1713800428702746000,7.78074609375,11.915658950805664,5.167898654937744,-8.469993591308594
1713800428720468500,7.798468505859375,13.755739212036133,6.537191390991211,-3.4432718753814697
1713800428738189800,7.81618994140625,10.387243270874023,10.74138069152832,-0.2721835672855377
1713800428755913200,7.833913330078125,7.032505512237549,7.321439266204834,-2.4921247959136963
1713800428773634800,7.851634765625,7.8903326988220215,7.444669246673584,0.6329016089439392
1713800428791358000,7.86935791015625,11.589037895202637,4.507479667663574,0.26141586899757385
1713800428809079300,7.887079345703125,19.889141082763672,-9.019744873046875,-0.372682124376297
1713800428826800000,7.904800048828125,11.444870948791504,-0.7058826684951782,1.6414763927459717
1713800428844526000,7.922526123046875,6.7208404541015625,-2.306680917739868,-0.08853443711996078
1713800428862247400,7.940247314453125,9.369695663452148,-5.472983360290527,-1.6552350521087646
1713800428879970000,7.957969970703125,7.562515735626221,-3.6442689895629883,-1.2538390159606934
1713800428897689300,7.975689453125,5.555535793304443,0.08614161610603333,-0.5742774605751038
1713800428915410400,7.993410400390625,7.039085865020752,2.5734808444976807,-0.6999006271362305
1713800428933140500,8.011140380859375,12.349955558776855,2.1164517402648926,-2.5232315063476562
1713800428950856000,8.02885595703125,12.493525505065918,2.7355945110321045,-4.290929317474365
1713800428968580400,8.046580322265624,8.428717613220215,4.5308098793029785,-4.366901397705078
1713800428986302000,8.064302001953125,6.195616245269775,4.376472473144531,-3.6221351623535156
1713800429004028200,8.082028076171875,7.129415035247803,4.24367094039917,-3.468994617462158
1713800429021748200,8.099748291015626,13.411172866821289,2.816950559616089,-6.751348972320557
1713800429039459800,8.1174599609375,12.244671821594238,3.604189157485962,-5.364708423614502
1713800429057192000,8.13519189453125,7.0755767822265625,2.2307088375091553,-8.127820014953613
1713800429074918000,8.15291796875,-1.6791633367538452,1.4003994464874268,-10.220343589782715
1713800429092638200,8.17063818359375,-12.253046989440918,-1.1365907192230225,-11.688340187072754
1713800429110361000,8.188361083984375,6.248258113861084,0.0568295381963253,-7.424928665161133
1713800429128082700,8.206082763671875,7.133602619171143,0.615553617477417,-8.654241561889648
1713800429145794800,8.223794921875,10.898709297180176,2.4705893993377686,-8.09850788116455
1713800429163515400,8.241515380859376,10.835299491882324,3.1758737564086914,-7.534998416900635
1713800429181249800,8.259249755859376,8.25523853302002,3.5880374908447266,-3.844069480895996
1713800429198971000,8.276970947265625,9.22851848602295,0.6574280261993408,-6.165107727050781
1713800429216691200,8.294691162109375,2.383849620819092,1.2041879892349243,-6.102295875549316
1713800429234404000,8.312404052734376,1.4003994464874268,0.7052844762802124,-12.062817573547363
1713800429252141600,8.3301416015625,0.33798620104789734,4.036691665649414,-8.572885513305664
1713800429269856800,8.347856689453126,1.384247899055481,6.1944193840026855,-6.030511379241943
1713800429287585300,8.365585205078125,3.0526435375213623,4.716851711273193,-7.810771465301514
1713800429305307000,8.383306884765625,5.9306111335754395,3.1956145763397217,-10.852646827697754
1713800429323029800,8.40102978515625,5.0015974044799805,3.098107099533081,-10.934600830078125
1713800429340746800,8.418746826171875,6.817749977111816,0.37447673082351685,-11.298908233642578
1713800429358473500,8.436473388671875,17.135601043701172,-11.039885520935059,-4.337589263916016
1713800429376197400,8.454197265625,3.4947173595428467,-1.0528420209884644,-11.345568656921387
1713800429393919500,8.47191943359375,-0.11126625537872314,0.28953152894973755,-15.111272811889648
1713800429411641300,8.489641357421876,0.9104689955711365,3.0065815448760986,-8.833105087280273
1713800429429364500,8.507364501953125,-1.1808580160140991,7.515257835388184,-7.094718933105469
1713800429447085800,8.5250859375,6.7417778968811035,11.813963890075684,-6.667002201080322
1713800429464809200,8.542809326171875,3.3828530311584473,5.003990173339844,-8.194819450378418
1713800429482530800,8.56053076171875,4.84606409072876,1.1874382495880127,-8.553144454956055
1713800429500252400,8.57825244140625,5.821737289428711,2.0859432220458984,-7.978269100189209
1713800429517976600,8.5959765625,5.040481090545654,2.51425838470459,-6.608976364135742
1713800429535694800,8.61369482421875,4.90827751159668,2.1541385650634766,-6.996613502502441
1713800429553420300,8.631420166015625,4.532604217529297,3.1932218074798584,-8.828917503356934
1713800429571138800,8.649138916015625,3.6598222255706787,5.287539958953857,-9.996016502380371
1713800429588860200,8.666860107421876,1.9968105554580688,5.045864582061768,-10.077970504760742
1713800429606588400,8.68458837890625,2.3682961463928223,3.9110686779022217,-10.153943061828613
1713800429624309500,8.7023095703125,2.228914260864258,4.0935211181640625,-9.806385040283203
1713800429642028000,8.720028076171875,1.5601203441619873,4.515854358673096,-9.175278663635254
1713800429659753200,8.737753173828125,1.6839489936828613,4.59721040725708,-9.221938133239746
1713800429677479400,8.7554794921875,0.7824530005455017,4.692325115203857,-8.970093727111816
1713800429695199200,8.77319921875,0.5383850932121277,4.716851711273193,-8.528019905090332
1713800429712922400,8.79092236328125,0.1459621787071228,4.5786662101745605,-8.034500122070312
1713800429730644500,8.80864453125,-0.08434699475765228,4.464408874511719,-7.592426300048828
1713800429748364500,8.826364501953124,-0.5234299302101135,4.411766529083252,-7.328019142150879
1713800429766091500,8.844091552734374,-1.5355939865112305,4.306482315063477,-6.809973239898682
1713800429783812400,8.861812255859375,-1.7718851566314697,4.700700283050537,-5.980860233306885
1713800429801533400,8.879533447265626,-2.224726915359497,4.489533424377441,-5.879165172576904
1713800429819256000,8.897256103515625,-4.356133460998535,4.157529354095459,-7.338188648223877
1713800429836979500,8.9149794921875,-4.148556232452393,5.133800983428955,-8.0081787109375
1713800429854697500,8.932697509765624,-4.769493579864502,5.264209747314453,-9.266803741455078
1713800429872423000,8.9504228515625,-4.07258415222168,5.719444274902344,-9.514460563659668
1713800429890146300,8.968146240234375,-4.636094093322754,6.616154670715332,-10.680961608886719
1713800429907867600,8.98586767578125,-3.549154281616211,7.165307521820068,-12.161520957946777
1713800429925591300,9.00359130859375,-3.851846218109131,7.933403491973877,-11.265409469604492
1713800429943307800,9.021307861328125,-3.2039895057678223,6.45523738861084,-12.866207122802734
1713800429961035800,9.039035888671876,-0.6137589812278748,6.993622303009033,-13.536197662353516
1713800429978757000,9.056757080078125,-3.727419376373291,5.516054630279541,-14.898311614990234
1713800429996480800,9.074480712890624,-2.2468605041503906,11.147562026977539,-12.023933410644531
1713800430014202000,9.0922021484375,0,13.456636428833008,-9.072985649108887
1713800430031924500,9.109924560546874,-3.095116138458252,10.194621086120605,-7.3746795654296875
1713800430049650700,9.127650634765626,0.8303094506263733,9.345169067382812,-8.305487632751465
1713800430067370200,9.145370361328125,1.1682956218719482,8.817551612854004,-6.658029079437256
1713800430085091800,9.163091796875,-2.4125633239746094,6.043073654174805,-5.005186557769775
1713800430102810600,9.180810546875,-0.3409772217273712,6.830312252044678,-7.5673017501831055
1713800430120538600,9.19853857421875,3.0514471530914307,9.480961799621582,-6.678966045379639
1713800430138258400,9.216258544921875,1.9387845993041992,7.688737392425537,-6.292525291442871
1713800430155982300,9.233982421875,0.5533402562141418,3.7357943058013916,-4.0833516120910645
1713800430173701000,9.251701171875,-0.1740778535604477,6.4354963302612305,-4.427918434143066
1713800430191426000,9.269426025390626,-1.506281852722168,4.454239368438721,-7.005586624145508
1713800430209143300,9.287143310546876,2.5938198566436768,7.723433494567871,-2.105085611343384
1713800430226870300,9.304870361328126,-2.2570300102233887,3.8021950721740723,-4.883152961730957
1713800430244590600,9.322590576171875,1.095314621925354,4.686941146850586,-5.233103275299072
1713800430262315500,9.3403154296875,3.6472599506378174,1.5696916580200195,-6.247061729431152
1713800430280038700,9.35803857421875,-2.695514678955078,4.552943229675293,-3.1250264644622803
1713800430297760000,9.375760009765624,0.7411768436431885,4.621737003326416,-6.275177478790283
1713800430315479000,9.39347900390625,0.8309076428413391,4.311866283416748,-7.7252278327941895
1713800430333205000,9.411205078125,0.5904290080070496,3.9792640209198,-8.590831756591797
1713800430350928100,9.42892822265625,1.186241865158081,3.4672000408172607,-8.578269004821777
1713800430368653000,9.446653076171875,-0.12442677468061447,1.841277003288269,-8.917451858520508
1713800430386372600,9.46437255859375,0.9553344249725342,3.4648072719573975,-9.57188892364502
1713800430404094500,9.482094482421875,-0.9302098155021667,6.440282344818115,-8.167900085449219
1713800430421817600,9.499817626953124,1.2526426315307617,4.263411521911621,-8.380861282348633
1713800430439539000,9.5175390625,-0.053240302950143814,3.9499518871307373,-8.532805442810059
1713800430457261300,9.53526123046875,-1.677966833114624,4.64805793762207,-10.197611808776855
1713800430474985000,9.55298486328125,-1.7353945970535278,4.705485820770264,-10.121041297912598
1713800430492703200,9.570703125,-1.5391831398010254,5.66201639175415,-8.749954223632812
1713800430510428700,9.5884287109375,0.268594354391098,5.443671703338623,-9.072386741638184
1713800430528151800,9.60615185546875,1.506281852722168,6.069993019104004,-10.185050010681152
1713800430545870300,9.623870361328125,-1.0875378847122192,6.067600250244141,-9.814760208129883
1713800430563599000,9.64159912109375,-0.1417747437953949,6.603592395782471,-10.371091842651367
1713800430581314800,9.659314697265625,1.4775680303573608,6.295516490936279,-10.022337913513184
1713800430599039000,9.6770390625,1.0971091985702515,6.001199245452881,-8.675178527832031
1713800430616759300,9.69475927734375,3.098705291748047,6.174678802490234,-7.093522548675537
1713800430634485000,9.712485107421875,2.365903377532959,6.535995006561279,-5.904888153076172
1713800430652208600,9.730208740234374,0.13698910176753998,7.115057945251465,-4.787439823150635
1713800430669930800,9.7479306640625,0.4414757788181305,7.1748785972595215,-6.221338748931885
1713800430687656400,9.765656494140625,0.7166503667831421,6.999604225158691,-7.378866672515869
1713800430705374200,9.783374267578125,1.404586911201477,6.577869415283203,-7.909475326538086
1713800430723098000,9.80109814453125,1.038485050201416,5.383851051330566,-8.37129020690918
1713800430740820200,9.8188203125,0.6287141442298889,5.124229907989502,-8.545966148376465
1713800430758541300,9.836541259765625,-0.01136590726673603,4.214358806610107,-8.026723861694336
1713800430776264000,9.854263916015626,-0.4695914387702942,3.8261234760284424,-7.867600917816162
1713800430793987300,9.8719873046875,-0.4462614357471466,3.1208388805389404,-6.270391941070557
1713800430811716900,9.889716796875,1.3040883541107178,2.795415163040161,-5.014758110046387
1713800430829431000,9.90743115234375,-0.31824541091918945,3.7423746585845947,-2.843869686126709
1713800430847154400,9.925154541015624,-3.6059837341308594,1.397408366203308,-1.9902302026748657
1713800430864875500,9.94287548828125,-3.982254981994629,6.527620315551758,0.28953152894973755
1713800430882596000,9.96059619140625,-3.716651678085327,4.8813581466674805,-1.1748759746551514
1713800430900323000,9.978322998046876,-3.2608189582824707,4.808377265930176,-2.0787646770477295
1713800430918038500,9.99603857421875,-1.2089736461639404,9.438488960266113,-3.8673996925354004
1713800430935764700,10.0137646484375,-1.5302101373672485,8.282755851745605,-6.489933013916016
1713800430953488400,10.03148828125,-2.304288148880005,8.964112281799316,-7.485945701599121
1713800430971209700,10.049209716796875,-1.7641085386276245,10.74556827545166,-6.125626087188721
1713800430988929500,10.066929443359374,0.41216370463371277,6.897311210632324,-5.849853038787842
1713800431006653200,10.084653076171875,1.1784651279449463,8.425128936767578,-8.46161937713623
1713800431024379000,10.10237890625,0.004187439568340778,11.23190975189209,-5.937191009521484
1713800431042098700,10.1200986328125,0.10408778488636017,11.932408332824707,-7.52423095703125
1713800431059822300,10.137822265625,-4.899304389953613,11.708081245422363,-6.458826541900635
1713800431077542400,10.15554248046875,-11.173883438110352,10.914261817932129,-4.238286972045898
1713800431095267000,10.17326708984375,-5.3108696937561035,10.031908988952637,-5.996413707733154
1713800431112989400,10.190989501953124,-3.6089746952056885,10.153943061828613,-6.019145488739014
1713800431130717700,10.2087177734375,-1.217348575592041,12.582059860229492,-5.394618511199951
1713800431148433000,10.226432861328124,5.938985824584961,18.30808448791504,-0.46719861030578613
1713800431166156300,10.24415625,-1.1335997581481934,15.217155456542969,5.199005603790283
1713800431183877400,10.26187744140625,-0.11425728350877762,5.064409255981445,-0.646660327911377
1713800431201601300,10.279601318359376,-3.8841493129730225,6.842874526977539,-2.1756739616394043
1713800431219322400,10.297322265625,-3.291327476501465,11.83609676361084,-3.67238450050354
1713800431237045500,10.31504541015625,0.49232324957847595,11.214561462402344,-3.387040376663208
1713800431254766800,10.332766845703125,2.8666014671325684,10.49671459197998,-2.242672920227051
1713800431272490800,10.35049072265625,0.633499801158905,8.886344909667969,-1.5194423198699951
1713800431290206500,10.36820654296875,-2.561516523361206,6.611967086791992,-1.4135600328445435
1713800431307935500,10.385935546875,-0.1740778535604477,4.252045631408691,0.03888336941599846
1713800431325651000,10.40365087890625,-0.6287141442298889,-1.4769697189331055,-1.7365909814834595
1713800431343376100,10.421376220703126,-2.2755744457244873,2.129014015197754,-5.281557559967041
1713800431361102300,10.439102294921875,1.72941255569458,7.153941631317139,-3.3511481285095215
1713800431378822700,10.45682275390625,-0.3206382393836975,8.293522834777832,-4.512265205383301
1713800431396546600,10.474546630859376,-1.0169496536254883,11.379068374633789,-3.930809497833252
1713800431414269000,10.49226904296875,-1.3854442834854126,10.493125915527344,-3.5814573764801025
1713800431431991300,10.5099912109375,-2.943770170211792,7.246065139770508,-2.4981069564819336
1713800431449718500,10.527718505859376,-1.6408780813217163,6.516254425048828,-1.7276179790496826
1713800431467434800,10.545434814453126,-0.06759724020957947,6.94038200378418,-1.6648063659667969
1713800431485158100,10.563158203125,-1.0121639966964722,7.865208148956299,-2.8905298709869385
1713800431502879500,10.58087939453125,1.2915260791778564,10.554142951965332,-1.3603196144104004
1713800431520603000,10.598602783203125,1.7832510471343994,12.625130653381348,-2.933600664138794
1713800431538324200,10.61632421875,-0.534795880317688,11.981461524963379,-2.4909284114837646
1713800431556047400,10.63404736328125,-3.3589248657226562,11.069197654724121,-1.846660852432251
1713800431573768700,10.651768798828124,-1.083350419998169,11.904293060302734,-2.3850460052490234
1713800431591492400,10.669492431640625,-2.2504496574401855,12.650853157043457,-4.118047714233398
1713800431609213700,10.687213623046874,-0.5264210104942322,14.979069709777832,-4.900500774383545
1713800431626927000,10.704927001953125,3.455834150314331,15.091532707214355,-4.0695929527282715
1713800431644651500,10.722651611328125,3.7399818897247314,12.640684127807617,-3.7226338386535645
1713800431662384400,10.74038427734375,3.4474592208862305,9.812965393066406,-1.963310956954956
1713800431680101400,10.758101318359374,2.142772674560547,8.420941352844238,-2.6602206230163574
1713800431697827600,10.77582763671875,-3.9212381839752197,6.311069488525391,-4.289732933044434
1713800431715547400,10.79354736328125,-7.216753005981445,12.933804512023926,-1.062413215637207
1713800431733269500,10.81126953125,-4.603790760040283,18.298513412475586,-0.6239284873008728
1713800431750992000,10.828991943359375,-2.0578274726867676,15.3158597946167,-1.303490161895752
1713800431768712700,10.846712646484375,-3.115455150604248,14.642279624938965,0.014955141581594944
1713800431786436600,10.8644365234375,-5.131408214569092,13.676775932312012,-0.16151553392410278
1713800431804160000,10.882159912109374,-2.943770170211792,11.015358924865723,-0.39421752095222473
1713800431821881000,10.899881103515625,0.0011964113218709826,7.981858253479004,-0.6376872062683105
1713800431839604500,10.9176044921875,0.7986045479774475,5.9647088050842285,-1.3651052713394165
1713800431857325800,10.935325927734375,0.15074782073497772,5.264209747314453,-1.536790370941162
1713800431875049200,10.95304931640625,-0.4953143000602722,5.394618511199951,-0.8063812255859375
1713800431892765700,10.970765625,-1.1168500185012817,4.1970109939575195,-0.32961133122444153
1713800431910493700,10.98849365234375,-2.864806890487671,3.40797758102417,-0.771087110042572
1713800431928215800,11.0062158203125,-3.2135608196258545,3.6335012912750244,-0.6017948985099792
1713800431945938000,11.02393798828125,-3.294916868209839,4.122235298156738,-0.4055834412574768
1713800431963655000,11.041655029296875,-3.7298123836517334,3.3272199630737305,-0.08075776696205139
1713800431981381600,11.059381591796875,-4.792225360870361,2.6159534454345703,-0.43130627274513245
1713800431999105500,11.07710546875,-5.0356950759887695,4.380660057067871,-1.6707884073257446
1713800432016827600,11.09482763671875,-5.377270698547363,6.659823417663574,-1.827518343925476
1713800432034548000,11.1125478515625,-4.548157691955566,8.357531547546387,-1.4763715267181396
1713800432052271900,11.13027197265625,-3.273979663848877,9.378069877624512,-1.9250258207321167
1713800432069994800,11.147994873046875,-3.205185890197754,10.63669490814209,-2.423929452896118
1713800432087717600,11.165717529296876,-6.282355785369873,11.963515281677246,-2.8037898540496826
1713800432105438200,11.183438232421874,-8.428119659423828,11.932408332824707,-2.554936408996582
1713800432123161600,11.20116162109375,-12.002996444702148,13.36870002746582,-0.8823533654212952
1713800432140883000,11.218883056640625,-10.338190078735352,13.442279815673828,-1.2532408237457275
1713800432158605800,11.236605712890626,-8.242077827453613,13.517653465270996,-0.8392825126647949
1713800432176327400,11.254327392578125,-3.745365619659424,12.372089385986328,-1.6091731786727905
1713800432194050600,11.272050537109376,-1.332802176475525,12.489337921142578,-1.9184455871582031
1713800432211772000,11.28977197265625,-1.7395820617675781,12.040085792541504,-1.3154542446136475
1713800432229495000,11.3074951171875,-10.843673706054688,7.0307111740112305,4.311268329620361
1713800432247217700,11.3252177734375,7.299305438995361,7.11565637588501,3.896113395690918
1713800432264934100,11.34293408203125,-4.7712883949279785,10.814361572265625,-1.4033905267715454
1713800432282656800,11.36065673828125,-6.990631580352783,11.759527206420898,-3.6053855419158936
1713800432300384300,11.37838427734375,5.182853698730469,10.308877944946289,-2.008774518966675
1713800432318105900,11.39610595703125,4.901697158813477,9.41336441040039,-3.7914273738861084
1713800432335824400,11.413824462890625,-6.823133945465088,8.58066177368164,-0.9613165259361267
1713800432353549000,11.431549072265625,-6.404987812042236,7.503891944885254,-0.7836494445800781
1713800432371273700,11.449273681640625,0.46480581164360046,6.500102519989014,0.42711883783340454
1713800432388994600,11.46699462890625,1.765903115272522,5.154139995574951,1.7359927892684937
1713800432406716000,11.4847158203125,-1.6534404754638672,5.784648895263672,0.9182456731796265
1713800432424438300,11.502438232421875,-3.0215368270874023,6.786643028259277,-2.1655044555664062
1713800432442163700,11.520163818359375,-1.3621143102645874,9.342177391052246,-2.0656042098999023
1713800432459884000,11.537884033203126,-0.8476574420928955,8.911469459533691,-2.0679969787597656
1713800432477597700,11.55559765625,-0.5210371017456055,8.127820014953613,-1.389631748199463
1713800432495328800,11.573328857421876,-0.3888336718082428,7.707281589508057,-1.036690354347229
1713800432513052200,11.59105224609375,0.760917603969574,7.8765740394592285,-1.1718848943710327
1713800432530773200,11.608773193359376,0.0771685317158699,8.308478355407715,-0.4127618968486786
1713800432548496600,11.62649658203125,-1.0163514614105225,9.223134994506836,0.30209386348724365
1713800432566218800,11.64421875,-1.693520188331604,9.577272415161133,0.4175475537776947
1713800432583940000,11.661940185546875,-1.459621787071228,10.027721405029297,0.3720839321613312
1713800432601657900,11.679657958984375,-0.4408775866031647,10.845468521118164,-0.6939185857772827
1713800432619385900,11.6973857421875,0.4211367964744568,11.233105659484863,-3.631108283996582
1713800432637102000,11.71510205078125,0.8476574420928955,12.143574714660645,-5.706881999969482
1713800432654830300,11.732830322265626,-2.2947168350219727,13.897514343261719,-3.5682966709136963
1713800432672551700,11.7505517578125,-3.992424488067627,12.428918838500977,-1.8161523342132568
1713800432690273500,11.7682734375,-1.0133603811264038,11.526824951171875,-1.9698911905288696
1713800432707997200,11.7859970703125,1.191625714302063,14.704493522644043,-2.447857618331909
1713800432725718000,11.803718017578126,2.018345832824707,13.922638893127441,-3.3266217708587646
1713800432743442000,11.82144189453125,1.3752747774124146,10.484750747680664,-2.390429735183716
1713800432761161500,11.839161376953125,2.5639095306396484,11.029117584228516,0.2793620526790619
1713800432778882800,11.8568828125,4.528416633605957,14.79123306274414,2.1714866161346436
1713800432796608300,11.874608154296874,2.1750757694244385,17.064414978027344,0.4660021960735321
1713800432814329900,11.892329833984375,-6.056832313537598,16.781463623046875,-1.1359925270080566
1713800432832050200,11.91005029296875,-6.761518478393555,13.821541786193848,1.445863127708435
1713800432849777700,11.927777587890626,-4.9878387451171875,12.18365478515625,2.5848467350006104
1713800432867497700,11.945497802734375,-0.6717849373817444,11.770893096923828,1.7198412418365479
1713800432885219600,11.963219482421875,1.7336000204086304,10.615757942199707,2.2959132194519043
1713800432902941400,11.98094140625,4.06540584564209,8.82114028930664,1.5499508380889893
1713800432920659000,11.998658935546874,3.3373894691467285,5.868995666503906,-0.6957131624221802
1713800432938381800,12.0163818359375,2.92283296585083,3.324826955795288,-2.695514678955078
1713800432956108000,12.03410791015625,0.14895321428775787,3.215355396270752,-2.9186453819274902
1713800432973831400,12.05183154296875,-3.1441688537597656,4.4751763343811035,-1.2299108505249023
1713800432991552500,12.069552490234376,-2.6189444065093994,3.9559340476989746,-0.10169496387243271
1713800433009275000,12.08727490234375,-1.7928223609924316,2.709273338317871,0.8321040868759155
1713800433026996700,12.104996826171876,-1.3112667798995972,1.3058829307556152,0.656829833984375
1713800433044721400,12.122721435546875,-4.609174728393555,0.44386860728263855,0.4205385744571686
1713800433062441500,12.14044140625,-7.013961315155029,0.768694281578064,-0.4863412082195282
1713800433080164900,12.158164794921875,-5.891129493713379,4.597808837890625,-2.4634108543395996
1713800433097886000,12.175885986328124,-9.290133476257324,10.077372550964355,-4.695316314697266
1713800433115609300,12.193609375,-12.317054748535156,13.389636993408203,-4.218546390533447
1713800433133330700,12.21133056640625,-12.616755485534668,15.857833862304688,0.7483552694320679
1713800433151054000,12.22905419921875,-4.488935470581055,14.740983963012695,1.9286150932312012
1713800433168775200,12.246775146484374,-4.522434711456299,11.108678817749023,1.3657035827636719
1713800433186498600,12.26449853515625,-4.947160720825195,11.61416244506836,4.811966419219971
1713800433204221000,12.282220947265625,-6.678368091583252,15.211174011230469,5.607579708099365
1713800433221942300,12.2999423828125,-4.925625324249268,17.635103225708008,4.815555572509766
1713800433239660000,12.317659912109375,-2.362314224243164,11.911471366882324,7.614559650421143
1713800433257387800,12.3353876953125,-3.9942193031311035,-0.2721835672855377,3.3379876613616943
1713800433275108600,12.353108642578125,-3.782454490661621,2.14516544342041,-1.7282161712646484
1713800433292832300,12.370832275390624,-0.6478567123413086,13.017553329467773,-6.049055576324463
1713800433310548700,12.388548828125,0.05024927482008934,15.176477432250977,-4.97348165512085
1713800433328275500,12.406275390625,1.7611174583435059,15.67538070678711,-1.4464613199234009
1713800433345999000,12.4239990234375,-4.88554573059082,9.275178909301758,-0.07537391036748886
1713800433363721200,12.44172119140625,-6.275177478790283,5.494519233703613,0.2069791555404663
1713800433381442300,12.4594423828125,-0.4414757788181305,5.2151570320129395,0.47198426723480225
1713800433399164400,12.477164306640624,1.1928220987319946,6.406184196472168,0.7890332937240601
1713800433416888000,12.49488818359375,1.0839486122131348,6.649653911590576,0.607776939868927
1713800433434609000,12.51260888671875,-0.2273181527853012,6.94038200378418,0.7046862840652466
1713800433452332500,12.53033251953125,-1.064207911491394,6.799205780029297,0.07896314561367035
1713800433470054700,12.5480546875,-2.1571295261383057,7.317251682281494,-1.038485050201416
1713800433487775700,12.565775634765625,-0.8099704384803772,8.591429710388184,-1.8299111127853394
1713800433505499400,12.58349951171875,0.6005984544754028,7.92861795425415,-3.329014539718628
1713800433523221200,12.60122119140625,0.5665007829666138,7.176673412322998,-3.3684961795806885
1713800433540942600,12.618942626953125,1.2526426315307617,6.803991317749023,-3.2165517807006836
1713800433558660400,12.636660400390625,2.1128623485565186,7.798807144165039,-2.2366909980773926
1713800433576388400,12.654388427734375,1.2484551668167114,9.17467975616455,-1.4584254026412964
1713800433594109700,12.672109619140626,-0.9978070259094238,11.031510353088379,-0.8213363885879517
1713800433611828000,12.689827880859376,-1.633699655532837,11.094322204589844,-0.12382857501506805
1713800433629537500,12.70753759765625,-2.0572292804718018,11.218151092529297,-0.37926238775253296
1713800433647276300,12.7252763671875,-2.496910333633423,11.83729362487793,-1.5882359743118286
1713800433664987400,12.7429873046875,-0.4426721930503845,12.042478561401367,-3.005983352661133
1713800433682722800,12.760722900390626,0.48035913705825806,11.638689041137695,-4.207180500030518
1713800433700441900,12.77844189453125,-2.231307029724121,12.165708541870117,-2.6494529247283936
1713800433718167800,12.796167724609376,-0.39062830805778503,12.589238166809082,-2.8139593601226807
1713800433735887000,12.81388720703125,1.2203395366668701,15.572489738464355,-4.016352653503418
1713800433753610800,12.83161083984375,1.887937068939209,13.663017272949219,-5.884549140930176
1713800433771324400,12.849324462890625,3.717848300933838,11.867203712463379,-4.530211448669434
1713800433789044200,12.867044189453125,4.422534465789795,11.353943824768066,-1.1539387702941895
1713800433806779400,12.884779296875,4.150351047515869,11.902498245239258,2.2845473289489746
1713800433824498700,12.902498779296875,3.702893018722534,15.716058731079102,2.7110681533813477
1713800433842223000,12.92022314453125,0.6526423692703247,16.86820411682129,-0.5742774605751038
1713800433859943200,12.937943115234376,-3.751347780227661,15.209379196166992,-0.8757730722427368
1713800433877661000,12.955660888671876,-5.458626747131348,13.797015190124512,2.5220351219177246
1713800433895388700,12.973388671875,-3.6532418727874756,12.199806213378906,2.593221426010132
1713800433913108500,12.9911083984375,0.865005373954773,9.642477035522461,2.3700907230377197
1713800433930835000,13.0088349609375,6.2398834228515625,10.049257278442383,3.1824541091918945
1713800433948553700,13.0265537109375,5.785246849060059,8.192426681518555,0.1908276081085205
1713800433966277400,13.04427734375,1.9316060543060303,5.839085578918457,-2.4981069564819336
1713800433983995100,13.0619951171875,-2.5076780319213867,5.044668197631836,-3.6771702766418457
1713800434001721000,13.07972119140625,-3.281157970428467,5.590830326080322,-3.232703447341919
1713800434019444500,13.097444580078125,-0.1902294009923935,4.552345275878906,-2.451446771621704
1713800434037166600,13.11516650390625,0.3475574851036072,2.5884358882904053,-0.8524430394172668
1713800434054887700,13.1328876953125,-0.763310432434082,1.795215129852295,0.7423732280731201
1713800434072610000,13.150610107421874,-2.242074728012085,0.9846464991569519,1.1180464029312134
1713800434090333400,13.16833349609375,-3.352344512939453,0.6616154313087463,0.867398202419281
1713800434108055800,13.186055908203125,-3.032902717590332,1.5391831398010254,0.9373882412910461
1713800434125776600,13.203776611328125,-5.259424209594727,3.3164522647857666,-1.726421594619751
1713800434143500000,13.2215,-5.958128452301025,7.837092399597168,-1.8442680835723877
1713800434161222000,13.239221923828126,-7.828119277954102,11.904891014099121,-2.4705893993377686
1713800434178939400,13.256939453125,-9.501300811767578,16.66301918029785,-4.917250633239746
1713800434196661200,13.2746611328125,-9.186046600341797,18.56291961669922,-1.6354942321777344
1713800434214389000,13.292388916015625,-8.091329574584961,14.509478569030762,1.4524433612823486
1713800434232110000,13.310110107421876,-12.713665008544922,7.689335346221924,0.11186445504426956
1713800434249833700,13.327833740234375,-10.150951385498047,4.244867324829102,-1.4267204999923706
1713800434267555000,13.34555517578125,-7.162914752960205,8.62313461303711,0.9541380405426025
1713800434285272300,13.363272216796876,-4.831109046936035,13.185648918151855,2.854637384414673
1713800434303000300,13.381000244140624,1.1958130598068237,15.342180252075195,4.135395526885986
1713800434320722400,13.398722412109375,5.315057277679443,16.78325843811035,5.647061347961426
1713800434338443500,13.416443603515624,-6.591628074645996,9.136993408203125,1.2831511497497559
1713800434356167000,13.4341669921875,-5.074578762054443,4.514657974243164,0.3655036687850952
1713800434373886700,13.45188671875,-1.9692929983139038,7.16231632232666,-1.7437695264816284
1713800434391612700,13.46961279296875,2.602792739868164,9.058030128479004,-4.860421180725098
1713800434409332500,13.48733251953125,5.766104221343994,11.813963890075684,-3.9595232009887695
1713800434427055600,13.5050556640625,1.0301101207733154,10.76949691772461,-3.2991042137145996
1713800434444778000,13.522778076171875,-3.6370904445648193,8.889934539794922,-1.542174220085144
1713800434462499300,13.540499267578125,-2.8013970851898193,7.29810905456543,-0.6993024349212646
1713800434480222200,13.55822216796875,-0.6586244106292725,6.492326259613037,-0.1621137410402298
1713800434497944000,13.575944091796876,-0.7214360237121582,6.665805816650391,0.25782662630081177
1713800434515660800,13.593660888671875,-2.062613010406494,7.15513801574707,-0.6945167779922485
1713800434533389000,13.61138916015625,-0.20458634197711945,7.872984886169434,-2.0368902683258057
1713800434551110100,13.629110107421875,0.529412031173706,8.698508262634277,-1.7784653902053833
1713800434568834000,13.646833984375,-0.47557350993156433,8.791230201721191,-0.49651068449020386
1713800434586554600,13.6645546875,-1.5774682760238647,7.6977105140686035,-0.4289134442806244
1713800434604277200,13.68227734375,-1.5649060010910034,7.609774112701416,-1.2969099283218384
1713800434622000400,13.70000048828125,0.010767702013254166,8.304290771484375,-2.1158533096313477
1713800434639722200,13.71772216796875,1.6007983684539795,9.05982494354248,-1.470389485359192
1713800434657438700,13.735438720703126,-0.04426721855998039,9.162715911865234,0.4941178858280182
1713800434675166700,13.753166748046874,-2.217548370361328,9.398408889770508,2.0213370323181152
1713800434692888600,13.770888671875,-0.9379864931106567,9.507881164550781,1.1850453615188599
1713800434710611200,13.788611083984375,-3.432504177093506,11.425129890441895,-1.1461620330810547
1713800434728332500,13.80633251953125,-0.05623133108019829,12.392428398132324,-3.1268210411071777
1713800434746048300,13.82404833984375,0.34217363595962524,11.523834228515625,-4.203591346740723
1713800434763778000,13.841778076171876,-2.0093727111816406,11.7326078414917,-3.607778310775757
1713800434781488000,13.859488037109376,-2.1122641563415527,13.302299499511719,-4.0833516120910645
1713800434799222000,13.877221923828126,0.0687936544418335,15.545570373535156,-4.700700283050537
1713800434816944000,13.894944091796875,2.9653055667877197,14.92822265625,-4.211368083953857
1713800434834661000,13.9126611328125,3.073580741882324,12.78604793548584,-2.534597396850586
1713800434852389000,13.93038916015625,2.898306369781494,10.631311416625977,0.07597211748361588
1713800434870110500,13.9481103515625,0.5784648656845093,12.905689239501953,3.13639235496521
1713800434887833600,13.96583349609375,2.6057839393615723,16.549957275390625,1.3507484197616577
1713800434905554700,13.9835546875,1.7868403196334839,16.990236282348633,-0.3900300860404968
1713800434923276800,14.00127685546875,-2.806781053543091,15.51087474822998,0.623330295085907
1713800434941000000,14.019,-4.599603176116943,14.32463264465332,2.280359983444214
1713800434958717400,14.036717529296874,-1.911865234375,12.87218952178955,2.2474586963653564
1713800434976443600,14.054443603515624,5.604588985443115,9.896714210510254,2.004587173461914
1713800434994166800,14.072166748046875,2.3952155113220215,8.82652473449707,0.6616154313087463
1713800435011888000,14.08988818359375,2.8175487518310547,7.732406139373779,-0.3720839321613312
1713800435029607000,14.10760693359375,-0.3690928816795349,5.9437713623046875,-1.444068431854248
1713800435047335400,14.12533544921875,-0.7345965504646301,4.935794830322266,-2.1302103996276855
1713800435065056300,14.14305615234375,-0.15254244208335876,4.552943229675293,-2.3222343921661377
1713800435082777300,14.16077734375,0.4785645306110382,2.874378204345703,-1.609771490097046
1713800435100497400,14.178497314453125,-0.0023928226437419653,1.8616160154342651,-0.16390834748744965
1713800435118225000,14.196224853515625,0.14656038582324982,0.776470959186554,0.7417750358581543
1713800435135943700,14.213943603515625,-2.0039889812469482,0.46779683232307434,1.052243709564209
1713800435153661200,14.2316611328125,-3.7471601963043213,0.3397808074951172,0.6065805554389954
1713800435171389200,14.24938916015625,-5.492125988006592,2.221735715866089,-0.6083751320838928
1713800435189107500,14.267107421875,-6.156134605407715,6.10468864440918,-1.1371889114379883
1713800435206836500,14.28483642578125,-5.9509501457214355,10.134202003479004,-0.729810893535614
1713800435224553500,14.302553466796875,-10.357931137084961,16.012170791625977,-2.2331018447875977
1713800435242278100,14.320278076171874,-12.841082572937012,17.883358001708984,-3.6197423934936523
1713800435259995100,14.3379951171875,-7.936394691467285,16.234703063964844,-0.6101697683334351
1713800435277722000,14.35572216796875,-7.171289443969727,10.864611625671387,0.9762716293334961
1713800435295443700,14.373443603515625,-9.664610862731934,6.117250919342041,2.11824631690979
1713800435313166800,14.391166748046874,-11.160124778747559,10.670792579650879,2.191227436065674
1713800435330883000,14.408883056640626,-7.407580852508545,14.042878150939941,2.2337000370025635
1713800435348610000,14.426610107421874,-0.973878800868988,15.566507339477539,2.929413080215454
1713800435366333400,14.44433349609375,1.2161520719528198,12.772887229919434,3.3308091163635254
1713800435384055300,14.46205517578125,-6.44686222076416,3.4468610286712646,1.5050854682922363
1713800435401776600,14.479776611328125,-1.3423734903335571,0.9248259663581848,1.4859428405761719
1713800435419498800,14.497498779296874,1.34476637840271,8.669795036315918,-0.26081767678260803
1713800435437223000,14.515222900390626,-1.4195420742034912,15.19023609161377,-4.362713813781738
1713800435454943700,14.53294384765625,-0.14356936514377594,14.10568904876709,-3.9218363761901855
1713800435472661000,14.550660888671874,0.06939185410737991,10.348958015441895,-2.4705893993377686
1713800435490388700,14.568388671875,-1.3130614757537842,7.610372543334961,-1.1186445951461792
1713800435508109800,14.58610986328125,-1.8640087842941284,6.337390899658203,-0.32721850275993347
1713800435525833000,14.6038330078125,0.26620152592658997,6.383452415466309,-0.22791635990142822
1713800435543554300,14.62155419921875,-0.8763712644577026,6.471388816833496,-0.7405785918235779
1713800435561276700,14.639276611328125,-1.1054840087890625,6.883552551269531,-0.5748756527900696
1713800435578996000,14.656995849609375,-0.6909275650978088,7.540980339050293,-0.37088751792907715
1713800435596722000,14.674721923828125,-1.1934202909469604,7.572087287902832,-1.2041879892349243
1713800435614442200,14.692442138671876,-1.0857433080673218,7.703692436218262,-2.1571295261383057
1713800435632162800,14.710162841796874,-0.7519445419311523,7.977072715759277,-2.2642083168029785
1713800435649887500,14.727887451171876,-0.05623133108019829,6.967301368713379,-2.18045973777771
1713800435667611100,14.745611083984375,0.12741780281066895,7.1850481033325195,-1.511067509651184
1713800435685331700,14.763331787109376,-0.259621262550354,8.862417221069336,-0.8721838593482971
1713800435703051000,14.781051025390624,0.26979073882102966,10.017552375793457,-0.890728235244751
1713800435720775200,14.798775146484376,-0.19800607860088348,9.65803050994873,-0.6556333899497986
1713800435738500900,14.8165009765625,-0.5186443328857422,9.80219841003418,-0.26201409101486206
1713800435756221700,14.8342216796875,-0.544965386390686,11.429317474365234,-0.8368897438049316
1713800435773943300,14.851943359375,-0.1908276081085205,12.513265609741211,-2.712862730026245
1713800435791661000,14.8696611328125,-0.7770691514015198,12.379267692565918,-4.4482574462890625
1713800435809388300,14.88738818359375,-2.7314071655273438,12.304491996765137,-4.417748928070068
1713800435827109600,14.905109619140624,-2.8564319610595703,13.648061752319336,-5.456233978271484
1713800435844833000,14.9228330078125,-0.656829833984375,15.882360458374023,-5.86421012878418
1713800435862553900,14.940553955078125,1.6971094608306885,15.205191612243652,-5.721837043762207
1713800435880276500,14.9582763671875,2.478964328765869,13.608580589294434,-2.8283164501190186
1713800435897990700,14.97599072265625,2.9419753551483154,10.27178955078125,-0.2105683982372284
1713800435915721700,14.9937216796875,0.9445667266845703,9.735198974609375,2.9623143672943115
1713800435933442600,15.011442626953125,1.7096717357635498,14.027324676513672,2.8013970851898193
1713800435951166500,15.02916650390625,0.5252245664596558,16.6600284576416,0.6173482537269592
1713800435968882400,15.04688232421875,-2.190629243850708,15.985251426696777,0.1459621787071228
1713800435986610700,15.064610595703124,-3.4378879070281982,13.27418327331543,0.9361918568611145
1713800436004331800,15.082331787109375,-0.5617151260375977,12.072388648986816,1.6965112686157227
1713800436022055000,15.100054931640624,-2.231307029724121,10.687541961669922,0.4253242313861847
1713800436039776300,15.1177763671875,2.779263496398926,9.428318977355957,-0.11724831163883209
1713800436057500000,15.1355,1.937588095664978,7.820940971374512,-1.0456634759902954
1713800436075221500,15.153221435546875,0.19980068504810333,5.636891841888428,-2.0518453121185303
1713800436092943000,15.170943115234374,-0.5431707501411438,3.910470485687256,-2.468794822692871
1713800436110660900,15.188660888671874,0.09451649338006973,3.6293137073516846,-2.169692039489746
1713800436128388600,15.206388671875,0.6203392744064331,3.594019651412964,-1.0259226560592651
1713800436146109700,15.224109619140625,0.2967100143432617,3.3475589752197266,0.2925225794315338
1713800436163832800,15.241832763671875,-0.18843477964401245,3.1722846031188965,1.4913266897201538
1713800436181553200,15.25955322265625,-1.0654042959213257,3.1334011554718018,1.6480566263198853
1713800436199276800,15.27727685546875,-2.5423741340637207,3.758526086807251,1.4727823734283447
1713800436216999700,15.294999755859376,-3.9284164905548096,4.038486480712891,1.0259226560592651
1713800436234721800,15.3127216796875,-5.432305812835693,4.801198482513428,0.41156548261642456
1713800436252442600,15.330442626953126,-6.741179466247559,7.773682594299316,0.17347964644432068
1713800436270166000,15.348166015625,-8.118846893310547,10.661221504211426,0.5407779216766357
1713800436287887400,15.365887451171876,-10.26341438293457,15.26501178741455,-2.142772674560547
1713800436305605600,15.383605712890626,-9.346963882446289,18.481563568115234,-3.6544384956359863
1713800436323330300,15.401330322265625,-8.314460754394531,16.014564514160156,-0.1501496136188507
1713800436341056300,15.41905615234375,-10.227521896362305,8.308478355407715,-0.6681957244873047
1713800436358775800,15.43677587890625,-9.574281692504883,4.509274482727051,-1.2795618772506714
1713800436376499500,15.45449951171875,-8.002795219421387,9.257232666015625,-1.7694923877716064
1713800436394219500,15.472219482421876,-3.3786656856536865,12.597014427185059,0.11485548317432404
1713800436411945000,15.489945068359376,1.8556339740753174,15.508481979370117,5.07936429977417
1713800436429660400,15.507660400390625,-0.4091726839542389,13.228719711303711,6.583851337432861
1713800436447388000,15.525387939453125,-4.598406791687012,5.583651542663574,0.6227321028709412
1713800436465109200,15.543109130859374,-2.362314224243164,5.653641700744629,0.5126622319221497
1713800436482832600,15.56083251953125,0.8063812255859375,9.934401512145996,-1.8849459886550903
1713800436500553700,15.5785537109375,2.6009981632232666,12.882957458496094,-3.8632121086120605
1713800436518276000,15.596276123046875,2.7451658248901367,12.384053230285645,-4.325624942779541
1713800436535999000,15.6139990234375,-1.3298112154006958,8.721240043640137,-3.2590243816375732
1713800436553721300,15.631721435546876,-0.37806597352027893,6.796214580535889,-1.4811571836471558
1713800436571442700,15.649442626953125,0.02153540402650833,5.48375129699707,0.3128615617752075
1713800436589165800,15.667165771484376,-0.2632105052471161,6.175875186920166,1.4141582250595093
1713800436606882000,15.684882080078125,-2.201396942138672,7.067800045013428,0.9451649188995361
1713800436624609000,15.702609130859376,-1.7491533756256104,8.033304214477539,-0.3242274820804596
1713800436642333000,15.7203330078125,-1.7509479522705078,8.874381065368652,-1.1102696657180786
1713800436660054800,15.7380546875,-1.5230315923690796,8.965906143188477,-0.9230313301086426
1713800436677771000,15.75577099609375,-1.098305583000183,7.529016494750977,-1.222732424736023
1713800436695498000,15.773498046875,0.989432156085968,7.34476900100708,-1.2717852592468262
1713800436713222100,15.79122216796875,1.9525432586669922,7.456035137176514,-1.3848460912704468
1713800436730942500,15.8089423828125,1.7665013074874878,8.62014389038086,-1.0791629552841187
1713800436748660500,15.826660400390624,0.6185446381568909,10.357333183288574,-1.1078768968582153
1713800436766386700,15.84438671875,-0.5970092415809631,12.234501838684082,-0.7836494445800781
1713800436784110300,15.8621103515625,-1.0408778190612793,12.153145790100098,-0.5575276613235474
1713800436801832000,15.87983203125,-2.5405795574188232,11.876176834106445,-1.316650629043579
1713800436819553500,15.897553466796875,-2.0542383193969727,11.494522094726562,-2.9928228855133057
1713800436837275600,15.915275634765624,0.24047867953777313,11.693724632263184,-5.1343994140625
1713800436854998800,15.932998779296875,-1.0336993932724,12.043076515197754,-4.6408796310424805
1713800436872721000,15.950720947265625,-2.9204399585723877,11.430513381958008,-3.3469607830047607
1713800436890442500,15.9684423828125,-1.212562918663025,13.204193115234375,-3.648456335067749
1713800436908165400,15.986165283203125,-1.1210373640060425,14.382060050964355,-3.7800614833831787
1713800436925886700,16.00388671875,-0.1094716340303421,12.556336402893066,-2.802593469619751
1713800436943609900,16.02160986328125,2.0338993072509766,11.792428016662598,-0.8009973764419556
1713800436961320400,16.039320556640625,3.716651678085327,11.870793342590332,-0.8811569213867188
1713800436979051500,16.057051513671876,6.610172748565674,15.238691329956055,-0.41934216022491455
1713800436996775700,16.074775634765626,4.308277130126953,16.85444450378418,-0.35054850578308105
1713800437014497500,16.09249755859375,-5.100301265716553,16.65404510498047,1.0492527484893799
1713800437032222200,16.11022216796875,-3.4337005615234375,13.862817764282227,2.7493531703948975
1713800437049941800,16.127941650390625,4.684548377990723,11.653046607971191,3.8087754249572754
1713800437067658500,16.145658447265625,-1.8586249351501465,10.589436531066895,3.1746773719787598
1713800437085385000,16.163385009765626,0.664606511592865,8.574081420898438,2.4059832096099854
1713800437103109000,16.181109130859376,2.0823538303375244,7.261618614196777,1.573280930519104
1713800437120832000,16.19883203125,3.1268210411071777,7.186842918395996,-0.26141586899757385
1713800437138553000,16.216552978515626,1.9381862878799438,5.706881999969482,-1.568495273590088
1713800437156275500,16.234275390625,1.2346965074539185,5.019543647766113,-2.1984057426452637
1713800437173998600,16.25199853515625,-0.12382857501506805,3.9589250087738037,-2.3228325843811035
1713800437191721000,16.269720947265625,-0.259621262550354,3.486342668533325,-1.604387640953064
1713800437209442000,16.287442138671874,-0.7316055297851562,3.34995174407959,-0.12382857501506805
1713800437227165200,16.305165283203124,-1.3549357652664185,2.4807589054107666,1.1353943347930908
1713800437244886500,16.322886474609376,-3.07417893409729,2.41375994682312,2.2307088375091553
1713800437262609700,16.340609619140626,-5.944369792938232,2.0991036891937256,2.393420934677124
1713800437280326100,16.358326171875,-7.878966808319092,3.558725595474243,0.8189435601234436
1713800437298051000,16.376051025390623,-7.521838188171387,7.479365348815918,-0.251844584941864
1713800437315778000,16.393778076171873,-6.2327046394348145,10.339984893798828,-0.6167500615119934
1713800437333497300,16.411497314453126,-8.960522651672363,13.319048881530762,-1.2263215780258179
1713800437351221200,16.42922119140625,-9.448657989501953,20.053050994873047,-1.3537393808364868
1713800437368937500,16.4469375,-9.290732383728027,16.917255401611328,1.2951152324676514
1713800437386659800,16.464659912109376,-13.561920166015625,8.304888725280762,1.7533408403396606
1713800437404387300,16.48238720703125,-10.701300621032715,8.103293418884277,0.015553346835076809
1713800437422108400,16.5001083984375,-3.4277184009552,10.499107360839844,0.3840480446815491
1713800437439831600,16.51783154296875,0.02871387079358101,16.007984161376953,2.5022943019866943
1713800437457553200,16.53555322265625,-0.2715853750705719,13.84367561340332,5.278566837310791
1713800437475275000,16.55327490234375,-2.495713949203491,5.2492547035217285,1.9519450664520264
1713800437492998400,16.570998291015623,-1.0893324613571167,5.185246467590332,0.3200400173664093
1713800437510720500,16.588720458984376,-1.8460626602172852,10.374680519104004,-2.544766902923584
1713800437528441900,16.60644189453125,2.840280532836914,13.050455093383789,-4.11924409866333
1713800437546165000,16.6241650390625,1.3196417093276978,13.48475170135498,-3.9900317192077637
1713800437563886300,16.64188623046875,-2.1266210079193115,9.645467758178711,-2.919841766357422
1713800437581609500,16.659609375,-0.9684949517250061,7.705487251281738,-1.4602199792861938
1713800437599330300,16.677330322265625,0.30987054109573364,5.956333637237549,-0.48574298620224
1713800437617054000,16.695053955078127,0.06819544732570648,5.412564754486084,0.5802595019340515
1713800437634775000,16.712775146484375,-0.8811569213867188,6.4947190284729,0.9625129103660583
1713800437652493600,16.73049365234375,-0.3774677813053131,6.8141608238220215,-0.10767702013254166
1713800437670220000,16.748219970703126,-3.6047873497009277,6.422934055328369,-1.6546368598937988
1713800437687942000,16.76594189453125,-1.6474584341049194,8.267202377319336,-0.7334001660346985
1713800437705659400,16.783659423828126,-0.5916253924369812,9.209376335144043,0.1136590763926506
1713800437723387000,16.801386962890625,-0.9116654396057129,9.185447692871094,0.3409772217273712
1713800437741107000,16.81910693359375,-0.2189432680606842,8.408976554870605,-0.3044866919517517
1713800437758833000,16.8368330078125,0.4007977843284607,8.189435958862305,-0.267397940158844
1713800437776552700,16.854552734375,-0.4331009089946747,8.216354370117188,-0.4540380835533142
1713800437794274800,16.87227490234375,-1.6713865995407104,8.889934539794922,-0.7232306599617004
1713800437811997000,16.889996826171874,-0.21355941891670227,9.78963565826416,-1.810170292854309
1713800437829721000,16.90772119140625,0.23688943684101105,11.45563793182373,-2.42512583732605
1713800437847441400,16.92544140625,-0.5479564070701599,12.785449981689453,-2.748156785964966
1713800437865164500,16.94316455078125,-1.1772687435150146,12.41575813293457,-2.9144580364227295
1713800437882885600,16.9608857421875,-1.287936806678772,13.058231353759766,-2.3515465259552
1713800437900609000,16.978609130859375,-3.352942705154419,11.791830062866211,-2.2091734409332275
1713800437918329900,16.996329833984376,-1.750349760055542,13.211970329284668,-3.9810585975646973
1713800437936053200,17.01405322265625,-0.0687936544418335,15.52104377746582,-4.868795871734619
1713800437953769700,17.031769775390625,1.5050854682922363,11.962318420410156,-5.660222053527832
1713800437971497700,17.049497802734376,3.098107099533081,11.67996597290039,-4.386641979217529
1713800437989219300,17.06721923828125,2.9066812992095947,12.144172668457031,-2.431705951690674
1713800438006941400,17.08494140625,3.4749767780303955,13.762319564819336,-0.9804590940475464
1713800438024658400,17.102658447265625,0.649053156375885,15.756138801574707,-1.1096714735031128
1713800438042385400,17.120385498046875,-2.586043119430542,15.208182334899902,0.08075776696205139
1713800438060108800,17.13810888671875,-1.430309772491455,13.816158294677734,2.218146562576294
1713800438077831000,17.155830810546874,-4.478167533874512,13.094721794128418,2.822932481765747
1713800438095552000,17.173552001953126,-1.083350419998169,11.498709678649902,2.3605196475982666
1713800438113274400,17.1912744140625,0,9.371489524841309,1.648654818534851
1713800438130997200,17.208997314453125,1.80717933177948,8.534600257873535,1.1389836072921753
1713800438148715000,17.226715087890625,1.7252250909805298,8.555537223815918,-0.04426721855998039
1713800438166439200,17.244439208984375,0.7226324677467346,6.8895344734191895,-1.2598211765289307
1713800438184164400,17.262164306640624,1.1282159090042114,5.337191104888916,-1.6552350521087646
1713800438201885000,17.279885009765625,1.3405789136886597,4.246063709259033,-1.1593226194381714
1713800438219608600,17.297608642578126,1.5702898502349854,3.655634880065918,0.20099709928035736
1713800438237334800,17.315334716796876,1.1216355562210083,3.8075790405273438,1.9489539861679077
1713800438255052800,17.333052734375,-0.5928218364715576,3.19441819190979,3.0011978149414062
1713800438272774000,17.35077392578125,-2.906083106994629,2.4885356426239014,3.31465744972229
1713800438290497500,17.36849755859375,-3.9846479892730713,2.249253273010254,2.076970100402832
1713800438308219000,17.386218994140624,-5.325825214385986,5.441278457641602,1.6342978477478027
1713800438325936000,17.40393603515625,-5.0087761878967285,8.606983184814453,1.196411371231079
1713800438343658200,17.421658203125,-8.700303077697754,11.150553703308105,-0.9026923179626465
1713800438361386000,17.439385986328126,-12.053245544433594,11.711670875549316,-4.868197441101074
1713800438379107300,17.457107421875,-8.950352668762207,13.545170783996582,-3.04307222366333
1713800438396830500,17.47483056640625,-7.902296543121338,11.80618667602539,-1.5792629718780518
1713800438414550300,17.49255029296875,-9.179466247558594,8.396414756774902,-0.4707878530025482
1713800438432274700,17.510274658203127,-10.479965209960938,10.674980163574219,-0.5138586759567261
1713800438449995500,17.52799560546875,-8.172685623168945,17.030317306518555,1.8699909448623657
1713800438467720700,17.545720703125,-6.142375946044922,19.661226272583008,5.507081508636475
1713800438485437200,17.563437255859377,-5.975476264953613,7.891529083251953,7.18086051940918
1713800438503166500,17.58116650390625,-2.36291241645813,-1.5619150400161743,5.998208045959473
1713800438520885000,17.598885009765624,-2.3198416233062744,4.446462631225586,0.49232324957847595
1713800438538607900,17.61660791015625,-2.4885356426239014,12.369696617126465,-7.3878397941589355
1713800438556329200,17.6343291015625,4.770689964294434,14.21695613861084,-3.996013879776001
1713800438574052400,17.65205224609375,0.14715859293937683,16.31366729736328,-2.008774518966675
1713800438591774000,17.66977392578125,-3.82791805267334,11.270792961120605,-1.2442678213119507
1713800438609496600,17.68749658203125,-2.345564365386963,7.903493404388428,-0.01375873014330864
1713800438627214000,17.705214111328125,0.28594231605529785,5.955137252807617,1.1407781839370728
1713800438644940300,17.722940185546875,0.8470591902732849,4.457230567932129,1.3806586265563965
1713800438662657500,17.740657470703123,-0.44386860728263855,5.3802618980407715,1.287936806678772
1713800438680385500,17.758385498046874,-2.225325107574463,6.958926677703857,-0.6484549641609192
1713800438698106600,17.776106689453126,-1.430309772491455,7.920242786407471,-1.643869161605835
1713800438715828700,17.793828857421875,-1.3866406679153442,7.71386194229126,-1.934597134590149
1713800438733552600,17.811552734375,-0.8219345808029175,7.390232563018799,-1.134796142578125
1713800438751273500,17.8292734375,-1.1653046607971191,7.529016494750977,-1.1276177167892456
1713800438768992800,17.84699267578125,-2.1260228157043457,8.158329010009766,-1.8197416067123413
1713800438786718700,17.86471875,-0.6586244106292725,8.439485549926758,-1.3710874319076538
1713800438804438800,17.882438720703124,1.4135600328445435,8.169694900512695,-0.9960124492645264
1713800438822164500,17.90016455078125,1.6821542978286743,8.368298530578613,-0.09690931439399719
1713800438839884300,17.91788427734375,0.6837490797042847,9.926624298095703,0.9146564602851868
1713800438857607400,17.935607421875,0.13459627330303192,11.82891845703125,1.5385849475860596
1713800438875328800,17.953328857421877,-0.5545366406440735,12.482757568359375,0.8434699773788452
1713800438893052200,17.97105224609375,-1.0444670915603638,11.921640396118164,-1.0348957777023315
1713800438910773200,17.988773193359375,-1.555932879447937,11.196017265319824,-3.8009986877441406
1713800438928496400,18.006496337890624,-3.1166515350341797,11.84028434753418,-6.252445697784424
1713800438946218500,18.024218505859373,-0.09092725813388824,14.476576805114746,-7.140780925750732
1713800438963940000,18.041940185546874,-0.9176474809646606,14.58604907989502,-4.947160720825195
1713800438981657600,18.05965771484375,1.734796404838562,11.663813591003418,-4.518845558166504
1713800438999380700,18.077380615234375,4.2000017166137695,12.345767974853516,-2.9521448612213135
1713800439017106400,18.0951064453125,2.179263114929199,14.194822311401367,0.19980068504810333
1713800439034829800,18.112829833984375,5.242674350738525,17.43290901184082,2.7421748638153076
1713800439052551200,18.13055126953125,2.648256540298462,18.077775955200195,3.3948171138763428
1713800439070273300,18.148273193359376,-2.6554348468780518,16.296916961669922,2.6386852264404297
1713800439087995100,18.1659951171875,-6.503692150115967,14.587244987487793,2.8695926666259766
1713800439105719800,18.1837197265625,0.7136593461036682,12.041879653930664,2.272583246231079
1713800439123439900,18.20143994140625,-0.6891329288482666,10.686346054077148,1.0408778190612793
1713800439141163300,18.219163330078125,4.588237285614014,8.618349075317383,0.5084748268127441
1713800439158879500,18.23687939453125,4.3178486824035645,8.070392608642578,0
1713800439176607500,18.254607421875,0.9218349456787109,6.003592014312744,-1.1880364418029785
1713800439194328800,18.272328857421876,-0.2829512655735016,4.698307037353516,-1.669592022895813
1713800439212051700,18.2900517578125,-1.089930772781372,3.0975089073181152,-1.4715858697891235
1713800439229773600,18.307773681640626,-0.15254244208335876,1.8496519327163696,-0.9804590940475464
1713800439247496200,18.32549609375,-0.15254244208335876,1.5469598770141602,0.5599204897880554
1713800439265218600,18.343218505859376,-0.41216370463371277,1.1120643615722656,1.1826525926589966
1713800439282940200,18.360940185546873,-2.0135602951049805,0.5204389095306396,1.095314621925354
1713800439300657400,18.378657470703125,-3.910470485687256,0.7094719409942627,1.059422254562378
1713800439318377700,18.396377685546874,-4.722833633422852,2.651845693588257,0.37507495284080505
1713800439336106800,18.414106689453124,-5.595615863800049,6.336792469024658,-0.5174478888511658
1713800439353817900,18.43181787109375,-6.279364585876465,8.360522270202637,-1.1156535148620605
1713800439371546400,18.44954638671875,-9.396016120910645,13.844871520996094,-3.7609190940856934
1713800439389273300,18.4672734375,-11.782258987426758,22.414167404174805,-6.407381057739258
1713800439406996700,18.484996826171876,-7.29810905456543,18.32543182373047,-1.83828604221344
1713800439424718800,18.50271875,-10.84008502960205,8.309675216674805,0.2105683982372284
1713800439442440000,18.52043994140625,-12.259626388549805,5.326423168182373,-0.584446907043457
1713800439460163300,18.538163330078124,-10.927422523498535,14.535799026489258,-0.09152546525001526
1713800439477884700,18.555884765625,-1.179661512374878,19.253847122192383,0.5006981492042542
1713800439495608000,18.573608154296874,5.08654260635376,13.969298362731934,6.810571670532227
1713800439513329200,18.5913291015625,-2.5639095306396484,2.1122641563415527,8.420941352844238
1713800439531052300,18.60905224609375,-1.3908281326293945,-1.6947166919708252,6.114260196685791
1713800439548773600,18.626773681640625,-6.6382880210876465,6.471987247467041,0.6687939167022705
1713800439566497000,18.6444970703125,-1.4919248819351196,16.35972785949707,-3.903291940689087
1713800439584219400,18.662219482421875,3.2991042137145996,16.329818725585938,-0.9493523836135864
1713800439601932500,18.6799326171875,0.7094719409942627,13.286148071289062,-2.3814568519592285
1713800439619661000,18.6976611328125,-4.652843475341797,8.606983184814453,-3.2039895057678223
1713800439637385700,18.7153857421875,-2.3700907230377197,6.1573309898376465,-3.235694408416748
1713800439655107300,18.733107421875,0.6317051649093628,5.456831932067871,-1.3621143102645874
1713800439672825300,18.750825439453124,1.2245270013809204,5.272584915161133,-0.4378865361213684
1713800439690550300,18.76855029296875,-1.8550357818603516,5.4179487228393555,-0.26141586899757385
1713800439708275200,18.786275146484375,-1.194616675376892,6.777669906616211,-0.9044869542121887
1713800439725997300,18.803997314453124,-2.283949136734009,7.765905857086182,-1.5391831398010254
1713800439743722500,18.821722412109374,-0.3732803463935852,8.128418922424316,-1.3316057920455933
1713800439761439500,18.839439453125,-0.4342973232269287,8.255836486816406,-0.03409772366285324
1713800439779165400,18.85716552734375,0.07477571070194244,7.442276477813721,0.10169496387243271
1713800439796885200,18.87488525390625,-0.1860419660806656,7.096513748168945,-0.33439695835113525
1713800439814607600,18.892607666015625,1.0863415002822876,7.749754428863525,-0.2063809484243393
1713800439832331000,18.9103310546875,0.99481600522995,9.442078590393066,0.49651068449020386
1713800439850053000,18.92805322265625,-0.7112665176391602,10.359127044677734,0.41994038224220276
1713800439867774200,18.945774169921876,-2.5914268493652344,10.565508842468262,-0.4737788736820221
1713800439885497900,18.963497802734373,-1.9752750396728516,12.39721393585205,-2.2085752487182617
1713800439903219700,18.9812197265625,-1.2939188480377197,13.49193000793457,-3.4672000408172607
1713800439920941000,18.998941162109375,-1.9405791759490967,14.021940231323242,-3.9284164905548096
1713800439938659300,19.016659423828123,-3.937987804412842,13.410574913024902,-3.9798622131347656
1713800439956386800,19.03438671875,-1.8478572368621826,14.269000053405762,-4.700101852416992
1713800439974103000,19.05210302734375,1.4105689525604248,15.66939926147461,-3.8907296657562256
1713800439991831300,19.069831298828124,1.6241283416748047,12.637094497680664,-4.036691665649414
1713800440009552600,19.087552734375,2.079961061477661,11.248061180114746,-2.0608184337615967
1713800440027274800,19.105274658203125,6.022136211395264,14.10808277130127,0.009571290574967861
1713800440044993300,19.1229931640625,7.051648139953613,17.512470245361328,-1.1431710720062256
1713800440062719200,19.14071923828125,-3.7154552936553955,18.97867202758789,-1.1377872228622437
1713800440080443000,19.15844287109375,-4.398007869720459,16.54218101501465,1.9076778888702393
1713800440098165000,19.1761650390625,-0.3152543902397156,13.754542350769043,3.914059638977051
1713800440115886000,19.193885986328127,-1.607378602027893,12.645469665527344,5.545366287231445
1713800440133600500,19.2116005859375,-2.1003000736236572,11.353344917297363,4.324428558349609
1713800440151320000,19.229320068359375,-0.22193430364131927,8.276175498962402,2.3712873458862305
1713800440169049300,19.24704931640625,0.09571290761232376,7.488338470458984,1.2562319040298462
1713800440186775600,19.264775634765623,0.1495514214038849,4.804787635803223,-1.327418327331543
1713800440204497400,19.282497314453124,1.415354609489441,3.558725595474243,-2.32761812210083
1713800440222222000,19.30022216796875,1.2687941789627075,1.195214867591858,-3.1238300800323486
1713800440239942100,19.317942138671874,1.2275179624557495,0.2584248483181,-2.1332013607025146
1713800440257660000,19.335659912109374,1.7838492393493652,1.2705888748168945,0.10887342691421509
1713800440275388000,19.353387939453125,1.0169496536254883,0.8458628058433533,1.3435698747634888
1713800440293108700,19.371108642578125,-1.8562321662902832,0.5485545992851257,2.713460922241211
1713800440310832600,19.38883251953125,-5.460421085357666,1.272383451461792,2.8827531337738037
1713800440328553500,19.406553466796876,-8.62732219696045,4.865804672241211,0.9260223507881165
1713800440346271200,19.424271240234376,-8.410173416137695,9.742377281188965,-0.9218349456787109
1713800440363999200,19.441999267578126,-5.91924524307251,14.167304992675781,-2.8797619342803955
1713800440381721600,19.4597216796875,-7.134799003601074,16.526029586791992,0.6933203339576721
1713800440399442700,19.477442626953124,-12.729816436767578,13.551751136779785,0.005383851006627083
1713800440417166300,19.495166259765625,-11.9461669921875,10.695917129516602,-0.9906286001205444
1713800440434871000,19.51287109375,-5.237888813018799,7.222136974334717,0.9978070259094238
1713800440452612000,19.530612060546876,-8.261817932128906,14.761920928955078,2.7637102603912354
1713800440470331000,19.548330810546876,-6.492326259613037,23.950958251953125,0.41156548261642456
1713800440488055600,19.5660556640625,-0.21355941891670227,18.098114013671875,5.614160060882568
1713800440505776600,19.583776611328126,0.3445664644241333,0.6227321028709412,4.587639331817627
1713800440523500000,19.6015,0.09810572862625122,-2.9587252140045166,5.377869129180908
1713800440541222100,19.61922216796875,-3.6670007705688477,7.8556365966796875,-1.3621143102645874
1713800440558940000,19.63693994140625,0.12143574655056,17.46102523803711,-2.985046148300171
1713800440576661000,19.654660888671874,2.5764718055725098,18.412172317504883,-1.1940184831619263
1713800440594389200,19.67238916015625,-0.12442677468061447,12.930215835571289,-2.596810817718506
1713800440612110300,19.6901103515625,-1.9938194751739502,7.551149845123291,-1.3519448041915894
1713800440629834000,19.707833984375,-0.6041877269744873,5.245067119598389,-0.9595218896865845
1713800440647550200,19.72555029296875,0.5569294691085815,5.268397331237793,-1.8969101905822754
1713800440665277400,19.74327734375,0.9822536706924438,5.54596471786499,-2.3706889152526855
1713800440683000600,19.76100048828125,-0.9014959335327148,5.611767292022705,-1.8771693706512451
1713800440700723200,19.77872314453125,-2.4735803604125977,5.856433391571045,-0.6747759580612183
1713800440718442200,19.796442138671875,-0.7519445419311523,6.835696220397949,-0.8584251403808594
1713800440736168200,19.814168212890625,-0.9050851464271545,7.300501823425293,-0.6011967062950134
1713800440753888800,19.831888671875,0.26560330390930176,8.295916557312012,0.2183450609445572
1713800440771613700,19.84961376953125,-0.32961133122444153,8.117053031921387,0.03349951654672623
1713800440789330400,19.867330322265627,-1.4380863904953003,8.123632431030273,-0.6460621356964111
1713800440807060000,19.88506005859375,-0.16031911969184875,8.987442016601562,-0.6993024349212646
1713800440824778000,19.902778076171874,0.025722842663526535,9.850054740905762,-0.5676971673965454
1713800440842501600,19.920501708984375,-1.7724833488464355,10.97468090057373,-0.010169495828449726
1713800440860222700,19.93822265625,-3.122633457183838,11.860025405883789,0.3732803463935852
1713800440877945900,19.95594580078125,-2.8223342895507812,11.737393379211426,-1.1084750890731812
1713800440895662300,19.973662353515625,-1.8418751955032349,12.431910514831543,-3.7154552936553955
1713800440913390600,19.991390625,-2.1092731952667236,14.1194486618042,-4.959722995758057
1713800440931112000,20.00911181640625,-2.8348965644836426,14.679966926574707,-4.481756687164307
1713800440948831000,20.0268310546875,-0.989432156085968,14.183456420898438,-4.847260475158691
1713800440966556400,20.044556396484374,0.04366901144385338,15.110674858093262,-4.31007194519043
1713800440984279000,20.062279052734375,3.098107099533081,13.179667472839355,-4.284348964691162
1713800441002002200,20.080002197265625,5.846862316131592,11.464611053466797,-3.9397823810577393
1713800441019720000,20.097719970703125,4.6408796310424805,12.409177780151367,-0.6215356588363647
1713800441037444400,20.1154443359375,5.100899696350098,16.3106746673584,2.2295124530792236
1713800441055170300,20.13317041015625,0.029910283163189888,18.560527801513672,2.4155545234680176
1713800441072890000,20.15089013671875,-5.719444274902344,17.643478393554688,2.48315167427063
1713800441090614000,20.168614013671874,-6.958926677703857,13.572688102722168,3.5718860626220703
1713800441108333600,20.18633349609375,2.7672994136810303,10.545767784118652,2.3120648860931396
1713800441126059500,20.2040595703125,-1.841277003288269,10.418350219726562,3.7806596755981445
1713800441143779800,20.22177978515625,2.953939437866211,9.309276580810547,1.9728822708129883
1713800441161503000,20.2395029296875,3.7058839797973633,8.909674644470215,0.6747759580612183
1713800441179223300,20.257223388671875,1.4075778722763062,6.296712875366211,-0.9936196208000183
1713800441196948200,20.2749482421875,-0.9750752449035645,4.4584269523620605,-1.44945228099823
1713800441214664000,20.292663818359376,0.36311084032058716,3.032902717590332,-1.262213945388794
1713800441232392400,20.310392333984375,1.6965112686157227,1.7180466651916504,-0.9355936646461487
1713800441250113000,20.328113037109375,0.7130611538887024,0.9367900490760803,-0.623330295085907
1713800441267836700,20.345836669921876,0.5389832854270935,1.2837493419647217,0.35892340540885925
1713800441285555000,20.363554931640625,-1.0456634759902954,1.1682956218719482,0.9924231767654419
1713800441296632000,20.374632080078126,-3.1489546298980713,0.6538388133049011,1.4841482639312744
1713800441314358000,20.39235791015625,-4.403990268707275,1.5493526458740234,1.0205388069152832
1713800441332070400,20.4100703125,-7.475776195526123,5.749952793121338,-0.014356935396790504
1713800441349804000,20.427803955078126,-10.319047927856445,12.067004203796387,-0.33499518036842346
1713800441367525600,20.445525634765627,-13.813166618347168,15.605391502380371,-2.0482561588287354
1713800441385248000,20.463248046875,-10.62413215637207,18.392431259155273,-0.45284169912338257
1713800441402970400,20.480970458984373,-6.0125651359558105,15.570096969604492,2.480160713195801
1713800441420693800,20.49869384765625,-9.7064847946167,8.240283012390137,0.6675975322723389
1713800441438415000,20.5164150390625,-12.5413818359375,6.567101955413818,-1.0618150234222412
1713800441456137200,20.53413720703125,-8.307880401611328,14.975480079650879,-0.9595218896865845
1713800441473859300,20.551859375,-0.7752745151519775,20.385053634643555,1.5158531665802002
1713800441491583000,20.5695830078125,2.794816732406616,15.276976585388184,7.086344242095947
1713800441509304000,20.587303955078124,-2.2983062267303467,2.3192434310913086,7.039684295654297
1713800441527026000,20.60502587890625,-5.422734260559082,2.3617160320281982,3.129213809967041
1713800441544749000,20.6227490234375,-4.942973613739014,11.47537899017334,-3.817748546600342
1713800441562467600,20.640467529296874,6.076572895050049,13.52722454071045,-5.756533145904541
1713800441580193300,20.658193359375,5.789434432983398,15.583855628967285,-5.066203594207764
1713800441597911000,20.6759111328125,-1.2699905633926392,10.481161117553711,-4.494318962097168
1713800441615638000,20.693637939453126,-1.83828604221344,5.691328525543213,-2.311466693878174
1713800441633361200,20.711361083984375,-0.4307080805301666,4.237090587615967,0.641276478767395
1713800441651082500,20.72908251953125,0.29012975096702576,4.107280254364014,1.5948163270950317
1713800441668804900,20.746804931640625,-1.2406785488128662,6.258427619934082,1.9178473949432373
1713800441686527000,20.76452685546875,-2.155933141708374,6.787241458892822,0.06999006122350693
1713800441704250400,20.78225048828125,-0.29371899366378784,7.27537727355957,-1.511067509651184
1713800441721971700,20.7999716796875,-2.8396823406219482,8.220541954040527,-1.6857435703277588
1713800441739694000,20.817694091796874,-0.40797626972198486,7.539186000823975,-1.6588243246078491
1713800441757416200,20.835416259765626,0.719641387462616,7.202396392822266,-1.3591232299804688
1713800441775139600,20.8531396484375,1.5206388235092163,8.240880966186523,-1.1120643615722656
1713800441792860700,20.870860595703125,0.7160521745681763,9.06700325012207,-1.1838489770889282
1713800441810583000,20.8885830078125,-0.5892325639724731,9.143573760986328,-0.5180460810661316
1713800441828305400,20.906305419921875,-1.4350954294204712,9.357132911682129,1.5056836605072021
1713800441846028000,20.924028076171876,-3.5988051891326904,10.368699073791504,2.791825771331787
1713800441863750400,20.94175048828125,-4.0905303955078125,11.538190841674805,-0.14117653667926788
1713800441881468200,20.95946826171875,-1.210768222808838,12.105888366699219,-4.377668857574463
1713800441899189800,20.977189697265626,0.9960124492645264,13.127623558044434,-6.317649841308594
1713800441916917800,20.994917724609376,-1.7066807746887207,12.918251037597656,-5.159523963928223
1713800441934639000,21.01263916015625,-1.7353945970535278,13.071392059326172,-4.216751575469971
1713800441952360700,21.030360595703126,0.2590230405330658,16.35673713684082,-3.5808591842651367
1713800441970084000,21.048083984375,1.8681962490081787,14.714064598083496,-3.717249870300293
1713800441987806500,21.065806396484376,4.622933387756348,11.978469848632812,-2.610569477081299
1713800442005528800,21.08352880859375,5.07218599319458,12.155538558959961,0.9188438653945923
1713800442023250700,21.101250732421875,4.371088981628418,15.470794677734375,2.3401806354522705
1713800442040972800,21.118972900390624,-2.1439690589904785,18.959529876708984,2.000998020172119
1713800442058696200,21.1366962890625,-3.2069804668426514,17.663816452026367,1.4835500717163086
1713800442076417500,21.15441748046875,-2.490330219268799,15.288342475891113,2.2498514652252197
1713800442094139600,21.1721396484375,3.9930226802825928,12.871591567993164,2.5435705184936523
1713800442111862000,21.189862060546876,-0.6675975322723389,11.532807350158691,2.469393014907837
1713800442129585400,21.20758544921875,0.9978070259094238,9.915857315063477,1.76051926612854
1713800442147306500,21.225306396484374,1.3441680669784546,7.762914657592773,0.5461617708206177
1713800442165028400,21.2430283203125,0.5120640397071838,4.743771076202393,-0.8464609980583191
1713800442182751500,21.26075146484375,0.35114672780036926,2.7667012214660645,-1.5822539329528809
1713800442200469800,21.2784697265625,0.7776673436164856,2.416750907897949,-1.2143574953079224
1713800442218195500,21.296195556640626,1.1114661693572998,1.4350954294204712,-0.646660327911377
1713800442235917600,21.31391748046875,1.9004993438720703,1.3298112154006958,0.5940182209014893
1713800442253640200,21.33164013671875,1.6606189012527466,1.8759729862213135,1.0432707071304321
1713800442271358700,21.349358642578125,0.24406790733337402,1.8221344947814941,0.7597211599349976
1713800442289084200,21.367084228515626,-2.624328136444092,1.3040883541107178,0.8590233325958252
1713800442306803200,21.38480322265625,-5.049454212188721,2.280359983444214,0.6221339106559753
1713800442324529400,21.402529296875,-7.159923553466797,6.422934055328369,0.12861421704292297
1713800442342251800,21.420251708984374,-9.701101303100586,12.406785011291504,-0.7902296781539917
1713800442359974000,21.437973876953127,-11.09492015838623,17.039289474487305,-4.175475597381592
1713800442377696500,21.455696533203124,-8.854640007019043,18.409778594970703,-1.8987047672271729
1713800442395419000,21.4734189453125,-8.063812255859375,15.347564697265625,0.6149554252624512
1713800442413141800,21.491141845703126,-11.734402656555176,8.707481384277344,0.20937198400497437
1713800442430862800,21.50886279296875,-10.811370849609375,3.64127779006958,-0.13878370821475983
1713800442448585000,21.5265849609375,-9.477970123291016,3.5204403400421143,0.6921239495277405
1713800442466307600,21.5443076171875,-9.236893653869629,11.35932731628418,1.566102385520935
1713800442484030000,21.562030029296874,-1.4913266897201538,14.284552574157715,0.997208833694458
1713800442501752600,21.579752685546875,6.554539203643799,18.12264060974121,4.825725078582764
1713800442519469800,21.5974697265625,2.7726831436157227,17.79362678527832,4.944169998168945
1713800442537196300,21.6151962890625,-10.198808670043945,1.92741858959198,3.666402578353882
1713800442554919700,21.632919677734375,-3.90568470954895,2.940778970718384,2.475973129272461
1713800442572636400,21.650636474609374,1.109073281288147,10.475777626037598,-2.572882652282715
1713800442590363400,21.66836328125,7.8113694190979,14.882759094238281,-5.197210788726807
1713800442608085800,21.686085693359374,6.430710792541504,14.319249153137207,-4.646861553192139
1713800442625809000,21.703808837890627,-4.529015064239502,8.169694900512695,-2.5591237545013428
1713800442643530200,21.7215302734375,-4.841278553009033,5.0117669105529785,-0.7974081635475159
1713800442661251800,21.739251953125,0.7878368496894836,5.368297576904297,0.7680960893630981
1713800442678975200,21.756975341796874,-1.1629117727279663,5.362913608551025,0.5222335457801819
1713800442696692000,21.77469189453125,-1.5481562614440918,5.985645771026611,0.12861421704292297
1713800442714421500,21.79242138671875,-1.8550357818603516,7.163512706756592,-0.4989035129547119
1713800442732141600,21.8101416015625,-1.3250255584716797,7.969295978546143,-1.3932210206985474
1713800442749864000,21.827864013671874,0.5910272002220154,8.13798999786377,-1.755135416984558
1713800442767587300,21.84558740234375,1.810170292854309,7.28255558013916,-1.7700905799865723
1713800442785308400,21.863308349609376,2.0715861320495605,7.238288402557373,-1.5379867553710938
1713800442827396600,21.905396728515626,-2.6350958347320557,10.115657806396484,-0.21236300468444824
1713800442845120000,21.9231201171875,-3.803391695022583,9.870393753051758,-0.08195417374372482
1713800442862841000,21.940841064453124,-2.7326035499572754,11.642278671264648,-0.9649057388305664
1713800442880564500,21.958564453125,-1.576870083808899,12.232707977294922,-3.1316065788269043
1713800442898285800,21.976285888671875,1.7324036359786987,12.068799018859863,-5.286343574523926
1713800442916009000,21.994009033203124,-1.6827524900436401,13.068401336669922,-4.204787731170654
1713800442933730600,22.01173046875,-3.384049415588379,13.15514087677002,-2.779263496398926
1713800442951453700,22.02945361328125,-0.3643072545528412,15.260824203491211,-3.2679975032806396
1713800442969170000,22.047169921875,1.8616160154342651,16.15035629272461,-3.166900873184204
1713800442986898200,22.064898193359376,1.9525432586669922,14.400006294250488,-1.9381862878799438
1713800443004618800,22.08261865234375,3.149552822113037,11.758928298950195,0.5940182209014893
1713800443022344700,22.1003447265625,3.5611183643341064,12.282957077026367,3.326023578643799
1713800443040058000,22.11805810546875,0.17108681797981262,16.161123275756836,2.5800609588623047
1713800443057786000,22.1357861328125,-2.9048867225646973,17.497514724731445,0.11545369029045105
1713800443075509800,22.153509765625,-2.3599212169647217,15.258431434631348,0.97926265001297
1713800443093230800,22.17123095703125,3.731008768081665,13.16231918334961,2.383849620819092
1713800443110954000,22.1889541015625,-1.0211371183395386,13.041481971740723,2.4921247959136963
1713800443128670700,22.206670654296875,-0.5670989751815796,10.007980346679688,1.5702898502349854
1713800443146398700,22.224398681640626,2.503490686416626,9.296713829040527,1.1114661693572998
1713800443164121000,22.24212109375,1.3710874319076538,6.955935478210449,0.22851456701755524
1713800443181842400,22.259842529296876,0.5712863802909851,4.409972190856934,-0.4624129831790924
1713800443199565600,22.277565673828125,0.9858429431915283,3.5336008071899414,-0.6281159520149231
1713800443217286700,22.29528662109375,1.1682956218719482,3.2309088706970215,-1.113858938217163
1713800443235010300,22.31301025390625,0.9762716293334961,2.2923240661621094,-0.7537391185760498
1713800443252731100,22.330731201171876,0.6873382925987244,1.6091731786727905,0.22612173855304718
1713800443270454800,22.348454833984373,0.33379876613616943,1.5619150400161743,0.5341976284980774
1713800443288175900,22.36617578125,-1.3639088869094849,1.430309772491455,0.6903293132781982
1713800443305899300,22.383899169921875,-4.308277130126953,1.4925230741500854,0.2997010350227356
1713800443323620000,22.4016201171875,-6.565307140350342,3.672982692718506,-0.13100704550743103
1713800443341338600,22.419338623046876,-8.187641143798828,7.558926582336426,-0.7465606927871704
1713800443359060500,22.437060546875,-9.863214492797852,12.078370094299316,-0.8470591902732849
1713800443376788200,22.454788330078124,-9.17587661743164,16.88555145263672,-2.042872428894043
1713800443394508300,22.47250830078125,-7.7700934410095215,19.86222267150879,0.054436713457107544
1713800443412232400,22.490232421875,-10.194023132324219,13.607982635498047,0.020937198773026466
1713800443429953800,22.507953857421874,-14.177474021911621,5.3455657958984375,-1.6845471858978271
1713800443447673900,22.525673828125,-13.9453706741333,6.891329288482666,-2.534597396850586
1713800443465398500,22.5433984375,-6.340381622314453,14.435300827026367,-0.6448656916618347
1713800443483122200,22.5611220703125,1.8113667964935303,17.168502807617188,4.204189300537109
1713800443500842800,22.5788427734375,2.6763720512390137,11.917452812194824,7.479365348815918
1713800443518566400,22.59656640625,-3.7052857875823975,2.3605196475982666,4.378267288208008
1713800443536287700,22.614287841796877,-4.921437740325928,2.671586513519287,2.988037347793579
